<?xml-stylesheet type="text/xsl" href="primary.xsl"?>
<Bundle xmlns="http://hl7.org/fhir">
   <id value="Instance-Bundle-89655878-8bdc-4d8d-9cc3-bf12e862c3e9"/>
   <meta>
      <profile value="http://hl7.eu/fhir/laboratory/StructureDefinition/Bundle-eu-lab"/>
   </meta>
   <identifier>
      <system value="urn:oid:2.16.840.1.113883.2.51.999"/>
      <value value="183700c8-8036-409c-ab37-2bcc18ae90e5"/>
      <assigner>
         <display value="HL7 Europe"/>
      </assigner>
   </identifier>
   <type value="document"/>
   <timestamp value="2024-11-30T13:33:31Z"/>
   <entry>
      <fullUrl value="urn:uuid:8384ef95-c246-4d9c-b316-2ced1238d322"/>
      <resource>
         <Composition>
            <id value="8384ef95-c246-4d9c-b316-2ced1238d322"/>
            <meta>
               <profile value="http://hl7.eu/fhir/laboratory/StructureDefinition/Composition-eu-lab"/>
            </meta>
            <identifier>
               <system value="urn:oid:2.16.840.1.113883.2.51.999"/>
               <value value="8d9d5767-4289-4059-9448-990adc537680"/>
               <assigner>
                  <display value="HL7 Europe"/>
               </assigner>
            </identifier>
            <status value="final"/>
            <type>
               <text value="Laboratory Report"/>
            </type>
            <category>
               <coding>
                  <system value="http://loinc.org"/>
                  <code value="26436-6"/>
                  <display value="Laboratory studies (set)"/>
               </coding>
            </category>
            <subject>
               <reference value="urn:uuid:310d06a2-ed93-460e-8c00-7bace0f9383a"/>
            </subject>
            <date value="2024-11-30T13:33:31Z"/>
            <author>
               <reference value="urn:uuid:5c83c44d-c725-4d9c-828b-d9e07f136854"/>
            </author>
            <title value="Laboratory Report"/>
            <confidentiality value="N"/>
            <section>
               <title value="Laboratory Report"/>
               <code>
                  <coding>
                     <system value="http://loinc.org"/>
                     <code value="26436-6"/>
                     <display value="Laboratory studies (set)"/>
                  </coding>
                  <text value="Laboratory studies"/>
               </code>
               <section>
                  <title value="Hematology"/>
                  <code>
                     <coding>
                        <system value="http://loinc.org"/>
                        <code value="18723-7"/>
                        <display value="Hematology studies (set)"/>
                     </coding>
                     <text value="Hematology"/>
                  </code>
                  <text>
                     <status value="generated"/>
                     <div xmlns="http://www.w3.org/1999/xhtml">
                        <h3 id="section-1">Hematology</h3>
                        <table class="hl7__eu__lab__report">
                           <thead>
                              <tr>
                                 <th>Test</th>
                                 <th>29 Nov 2024</th>
                                 <th>Reference Range</th>
                                 <th>Unit</th>
                              </tr>
                           </thead>
                           <tbody>
                              <tr>
                                 <td>Leukocytes [#/volume] in Blood by Automated count</td>
                                 <td>3.8</td>
                                 <td>3.4 - 10.8</td>
                                 <td>10^3/uL</td>
                              </tr>
                              <tr>
                                 <td>Erythrocytes [#/volume] in Blood by Automated count</td>
                                 <td>5.2</td>
                                 <td>4.2 - 5.8</td>
                                 <td>10^6/uL</td>
                              </tr>
                              <tr>
                                 <td>Hemoglobin [Mass/volume] in Blood</td>
                                 <td>12.4</td>
                                 <td>12 - 15.5</td>
                                 <td>g/dL</td>
                              </tr>
                              <tr>
                                 <td>Hematocrit [Volume Fraction] of Blood by Automated count</td>
                                 <td>43.7</td>
                                 <td>37 - 52</td>
                                 <td>%</td>
                              </tr>
                              <tr>
                                 <td>MCV [Entitic volume] by Automated count</td>
                                 <td>95.4</td>
                                 <td>80 - 105</td>
                                 <td>fL</td>
                              </tr>
                              <tr>
                                 <td>MCH [Entitic mass] by Automated count</td>
                                 <td>32.9</td>
                                 <td>27 - 34</td>
                                 <td>pg</td>
                              </tr>
                              <tr>
                                 <td>MCHC [Mass/volume] by Automated count</td>
                                 <td>31.7</td>
                                 <td>31 - 35</td>
                                 <td>g/dL</td>
                              </tr>
                              <tr>
                                 <td>Erythrocyte distribution width [Ratio] by Automated count</td>
                                 <td>14.0</td>
                                 <td>11.5 - 16</td>
                                 <td>%</td>
                              </tr>
                              <tr>
                                 <td>Platelets [#/volume] in Blood by Automated count</td>
                                 <td>
                                    <strong>110.4 L</strong>
                                 </td>
                                 <td>150 - 450</td>
                                 <td>10^3/uL</td>
                              </tr>
                              <tr>
                                 <td>Neutrophils/100 leukocytes in Blood by Automated count</td>
                                 <td>40.9</td>
                                 <td>40 - 74.6</td>
                                 <td>%</td>
                              </tr>
                              <tr>
                                 <td>Lymphocytes/100 leukocytes in Blood by Automated count</td>
                                 <td>
                                    <strong>17.3 L</strong>
                                 </td>
                                 <td>20 - 45</td>
                                 <td>%</td>
                              </tr>
                              <tr>
                                 <td>Monocytes/100 leukocytes in Blood by Automated count</td>
                                 <td>7.0</td>
                                 <td>2 - 10</td>
                                 <td>%</td>
                              </tr>
                              <tr>
                                 <td>Eosinophils/100 leukocytes in Blood by Automated count</td>
                                 <td>5.6</td>
                                 <td>0 - 7</td>
                                 <td>%</td>
                              </tr>
                              <tr>
                                 <td>Basophils/100 leukocytes in Blood by Automated count</td>
                                 <td>
                                    <strong>3.6 H</strong>
                                 </td>
                                 <td>0 - 1</td>
                                 <td>%</td>
                              </tr>
                              <tr>
                                 <td>Neutrophils [#/volume] in Blood by Automated count</td>
                                 <td>3.4</td>
                                 <td>2 - 7.7</td>
                                 <td>10^3/uL</td>
                              </tr>
                              <tr>
                                 <td>Lymphocytes [#/volume] in Blood by Automated count</td>
                                 <td>1.1</td>
                                 <td>1 - 4</td>
                                 <td>10^3/uL</td>
                              </tr>
                              <tr>
                                 <td>Monocytes [#/volume] in Blood by Automated count</td>
                                 <td>
                                    <strong>1.0 H</strong>
                                 </td>
                                 <td>0.7 - 0.9</td>
                                 <td>10^3/uL</td>
                              </tr>
                              <tr>
                                 <td>Eosinophils [#/volume] in Blood by Automated count</td>
                                 <td>0.3</td>
                                 <td>0.1 - 0.5</td>
                                 <td>10^3/uL</td>
                              </tr>
                              <tr>
                                 <td>Basophils [#/volume] in Blood by Automated count</td>
                                 <td>
                                    <strong>0.4 H</strong>
                                 </td>
                                 <td>0.3 - 0.1</td>
                                 <td>10^3/uL</td>
                              </tr>
                           </tbody>
                        </table>
                     </div>
                  </text>
                  <entry>
                     <reference value="urn:uuid:6a0f3261-978f-42b4-85cd-87dfdbe8d6ca"/>
                  </entry>
                  <entry>
                     <reference value="urn:uuid:99168a07-4ea0-4d0e-88d9-ddc1e81c59eb"/>
                  </entry>
                  <entry>
                     <reference value="urn:uuid:ac36901b-7712-4aa8-80ea-cbdb2820a6a7"/>
                  </entry>
                  <entry>
                     <reference value="urn:uuid:2acf6d24-1e25-47ab-b0a2-10cea6c75187"/>
                  </entry>
                  <entry>
                     <reference value="urn:uuid:a1765e28-4e8a-4360-bae2-903dfa5a9352"/>
                  </entry>
                  <entry>
                     <reference value="urn:uuid:71f7ef3f-bfe0-48aa-a825-67d53bf8da44"/>
                  </entry>
                  <entry>
                     <reference value="urn:uuid:e482cd96-5f8c-45c5-bcf1-6d46092de0da"/>
                  </entry>
                  <entry>
                     <reference value="urn:uuid:fef55d59-0e44-4d7e-b1b0-7b338bc7a1ed"/>
                  </entry>
                  <entry>
                     <reference value="urn:uuid:b5fed781-444a-42a3-8fe2-00f172de0313"/>
                  </entry>
                  <entry>
                     <reference value="urn:uuid:fb45a033-cf0a-41e9-b1a1-b25b422635ae"/>
                  </entry>
                  <entry>
                     <reference value="urn:uuid:22b1732d-c8e4-4e32-9de4-cc87f8bed564"/>
                  </entry>
                  <entry>
                     <reference value="urn:uuid:954f1287-f0b3-4267-be9c-4f910cbd7ae4"/>
                  </entry>
                  <entry>
                     <reference value="urn:uuid:6a4f2784-cc7c-4280-9bbf-3ff75a529026"/>
                  </entry>
                  <entry>
                     <reference value="urn:uuid:df77d817-7b03-47aa-bca4-a64fbf0c2aa4"/>
                  </entry>
                  <entry>
                     <reference value="urn:uuid:6e41417d-e10e-410b-844f-e0cb38c3dfb9"/>
                  </entry>
                  <entry>
                     <reference value="urn:uuid:bf7de422-e8d4-48c4-b035-f1fb43493cef"/>
                  </entry>
                  <entry>
                     <reference value="urn:uuid:7b2019a3-c94f-40b6-996a-4128a688a80d"/>
                  </entry>
                  <entry>
                     <reference value="urn:uuid:e002e3bf-51ac-4ef5-bae6-45c6bb4c12f6"/>
                  </entry>
                  <entry>
                     <reference value="urn:uuid:e3519c82-d942-46e8-90af-e6afe72a88f1"/>
                  </entry>
               </section>
               <section>
                  <title value="Chemistry"/>
                  <code>
                     <coding>
                        <system value="http://loinc.org"/>
                        <code value="18719-5"/>
                        <display value="Chemistry studies (set)"/>
                     </coding>
                     <text value="Chemistry"/>
                  </code>
                  <text>
                     <status value="generated"/>
                     <div xmlns="http://www.w3.org/1999/xhtml">
                        <h3 id="section-2">Chemistry</h3>
                        <table class="hl7__eu__lab__report">
                           <thead>
                              <tr>
                                 <th>Test</th>
                                 <th>29 Nov 2024</th>
                                 <th>Reference Range</th>
                                 <th>Unit</th>
                              </tr>
                           </thead>
                           <tbody>
                              <tr>
                                 <td>Oxygen saturation in Arterial blood</td>
                                 <td>
                                    <strong>75.9 L</strong>
                                 </td>
                                 <td>95 - 100</td>
                                 <td>%</td>
                              </tr>
                              <tr>
                                 <td>Oxygen saturation in Arterial blood</td>
                                 <td>
                                    <strong>88.9 L</strong>
                                 </td>
                                 <td>95 - 100</td>
                                 <td>%</td>
                              </tr>
                              <tr>
                                 <td>Glucose [Mass/volume] in Serum or Plasma</td>
                                 <td>95.9</td>
                                 <td>70 - 139</td>
                                 <td>mg/dL</td>
                              </tr>
                              <tr>
                                 <td>Urea nitrogen [Mass/volume] in Serum or Plasma</td>
                                 <td>7.8</td>
                                 <td>6 - 20</td>
                                 <td>mg/dL</td>
                              </tr>
                              <tr>
                                 <td>Creatinine [Mass/volume] in Serum or Plasma</td>
                                 <td>
                                    <strong>2.5 H</strong>
                                 </td>
                                 <td>0.6 - 1.1</td>
                                 <td>mg/dL</td>
                              </tr>
                              <tr>
                                 <td>Calcium [Mass/volume] in Serum or Plasma</td>
                                 <td>10.1</td>
                                 <td>8.5 - 10.4</td>
                                 <td>mg/dL</td>
                              </tr>
                              <tr>
                                 <td>Sodium [Moles/volume] in Serum or Plasma</td>
                                 <td>140.0</td>
                                 <td>135 - 145</td>
                                 <td>mmol/L</td>
                              </tr>
                              <tr>
                                 <td>Potassium [Moles/volume] in Serum or Plasma</td>
                                 <td>5.0</td>
                                 <td>3.5 - 5.3</td>
                                 <td>mmol/L</td>
                              </tr>
                              <tr>
                                 <td>Chloride [Moles/volume] in Serum or Plasma</td>
                                 <td>103.0</td>
                                 <td>98 - 107</td>
                                 <td>mmol/L</td>
                              </tr>
                              <tr>
                                 <td>Carbon dioxide, total [Moles/volume] in Serum or Plasma</td>
                                 <td>25.4</td>
                                 <td>22 - 29</td>
                                 <td>mmol/L</td>
                              </tr>
                              <tr>
                                 <td>Protein [Mass/volume] in Serum or Plasma</td>
                                 <td>6.3</td>
                                 <td>6 - 8.3</td>
                                 <td>g/dL</td>
                              </tr>
                              <tr>
                                 <td>Albumin [Mass/volume] in Serum or Plasma</td>
                                 <td>3.5</td>
                                 <td>3.4 - 5</td>
                                 <td>g/dL</td>
                              </tr>
                              <tr>
                                 <td>Bilirubin.total [Mass/volume] in Serum or Plasma</td>
                                 <td>
                                    <strong>12.0 H</strong>
                                 </td>
                                 <td>0.3 - 1.2</td>
                                 <td>mg/dL</td>
                              </tr>
                              <tr>
                                 <td>Alkaline phosphatase [Enzymatic activity/volume] in Serum or Plasma</td>
                                 <td>81.3</td>
                                 <td>20 - 130</td>
                                 <td>U/L</td>
                              </tr>
                              <tr>
                                 <td>Alanine aminotransferase [Enzymatic activity/volume] in Serum or Plasma</td>
                                 <td>28.4</td>
                                 <td>7 - 33</td>
                                 <td>U/L</td>
                              </tr>
                              <tr>
                                 <td>Aspartate aminotransferase [Enzymatic activity/volume] in Serum or Plasma</td>
                                 <td>17.9</td>
                                 <td>10 - 40</td>
                                 <td>U/L</td>
                              </tr>
                              <tr>
                                 <td>Ferritin [Mass/volume] in Serum or Plasma</td>
                                 <td>
                                    <strong>313.0 H</strong>
                                 </td>
                                 <td>30 - 150</td>
                                 <td>ug/L</td>
                              </tr>
                              <tr>
                                 <td>Troponin I.cardiac [Mass/volume] in Serum or Plasma by High sensitivity method</td>
                                 <td>2.8</td>
                                 <td>0 - 15</td>
                                 <td>pg/mL</td>
                              </tr>
                              <tr>
                                 <td>Lactate dehydrogenase [Enzymatic activity/volume] in Serum or Plasma by Lactate to pyruvate reaction</td>
                                 <td>
                                    <strong>221.9 H</strong>
                                 </td>
                                 <td>100 - 214</td>
                                 <td>U/L</td>
                              </tr>
                              <tr>
                                 <td>Creatine kinase [Enzymatic activity/volume] in Serum or Plasma</td>
                                 <td>52.1</td>
                                 <td>30 - 170</td>
                                 <td>U/L</td>
                              </tr>
                              <tr>
                                 <td>C reactive protein [Mass/volume] in Serum or Plasma</td>
                                 <td>8.1</td>
                                 <td>0 - 10</td>
                                 <td>mg/L</td>
                              </tr>
                              <tr>
                                 <td>Procalcitonin [Mass/volume] in Serum or Plasma</td>
                                 <td>0.1</td>
                                 <td>0 - 0.5</td>
                                 <td>ng/mL</td>
                              </tr>
                           </tbody>
                        </table>
                     </div>
                  </text>
                  <entry>
                     <reference value="urn:uuid:99a53288-b903-403a-9dfd-d33e40de4ebd"/>
                  </entry>
                  <entry>
                     <reference value="urn:uuid:89b747ae-ad3a-4673-9877-1ed8fb69dad7"/>
                  </entry>
                  <entry>
                     <reference value="urn:uuid:17d5278c-9ffd-4828-8200-ec182082befd"/>
                  </entry>
                  <entry>
                     <reference value="urn:uuid:cd712d78-7a13-41d7-95f3-a5db4d140a1b"/>
                  </entry>
                  <entry>
                     <reference value="urn:uuid:b20b813a-1d10-4aa5-b387-c613281c860f"/>
                  </entry>
                  <entry>
                     <reference value="urn:uuid:0681f0b5-a062-46c5-bdd4-fab7af1deb14"/>
                  </entry>
                  <entry>
                     <reference value="urn:uuid:bca09beb-dcef-4c02-b6dc-59c5468cea8a"/>
                  </entry>
                  <entry>
                     <reference value="urn:uuid:7f4336ad-fb42-4a40-b749-b98f0699ec71"/>
                  </entry>
                  <entry>
                     <reference value="urn:uuid:d22121b7-632b-483c-be52-aba2dc733902"/>
                  </entry>
                  <entry>
                     <reference value="urn:uuid:85d428ba-7288-4449-a3a0-3d47435718d0"/>
                  </entry>
                  <entry>
                     <reference value="urn:uuid:873cf0ba-a97e-4dad-8b56-85872f911ba6"/>
                  </entry>
                  <entry>
                     <reference value="urn:uuid:bdd95efc-6f72-45b1-9644-d52037c50ac2"/>
                  </entry>
                  <entry>
                     <reference value="urn:uuid:e973cea1-cf3f-4369-99ac-f4eb637b235d"/>
                  </entry>
                  <entry>
                     <reference value="urn:uuid:97b6a341-1d12-4e8e-a16e-419866e9dd9c"/>
                  </entry>
                  <entry>
                     <reference value="urn:uuid:b148b928-7e93-44bb-bb32-d2ba9bb56fb1"/>
                  </entry>
                  <entry>
                     <reference value="urn:uuid:295fb8c9-836f-4799-9f16-fd222bb154b0"/>
                  </entry>
                  <entry>
                     <reference value="urn:uuid:840800d7-8189-4747-b6ad-3321a27d0d51"/>
                  </entry>
                  <entry>
                     <reference value="urn:uuid:29c72e9f-ba33-4e57-ad22-1b52e0d1e861"/>
                  </entry>
                  <entry>
                     <reference value="urn:uuid:9bb94348-6966-4a35-bf02-1ded09fe3d77"/>
                  </entry>
                  <entry>
                     <reference value="urn:uuid:71ef5b1a-09a0-4cdd-8bb8-e8f50e22aa4b"/>
                  </entry>
                  <entry>
                     <reference value="urn:uuid:1b3d8c0a-65b3-4213-bc8f-b2d8b8db6686"/>
                  </entry>
                  <entry>
                     <reference value="urn:uuid:d8b21a0c-1713-418f-a921-edfb209c1b59"/>
                  </entry>
               </section>
               <section>
                  <title value="Coagulation"/>
                  <code>
                     <coding>
                        <system value="http://loinc.org"/>
                        <code value="18720-3"/>
                        <display value="Coagulation studies (set)"/>
                     </coding>
                     <text value="Coagulation"/>
                  </code>
                  <text>
                     <status value="generated"/>
                     <div xmlns="http://www.w3.org/1999/xhtml">
                        <h3 id="section-3">Coagulation</h3>
                        <table class="hl7__eu__lab__report">
                           <thead>
                              <tr>
                                 <th>Test</th>
                                 <th>29 Nov 2024</th>
                                 <th>Reference Range</th>
                                 <th>Unit</th>
                              </tr>
                           </thead>
                           <tbody>
                              <tr>
                                 <td>Fibrin D-dimer FEU [Mass/volume] in Platelet poor plasma</td>
                                 <td>0.2</td>
                                 <td>0 - 0.5</td>
                                 <td>ug/mL</td>
                              </tr>
                              <tr>
                                 <td>Prothrombin time (PT)</td>
                                 <td>11.8</td>
                                 <td>11 - 14</td>
                                 <td>sec</td>
                              </tr>
                              <tr>
                                 <td>INR in Platelet poor plasma by Coagulation assay</td>
                                 <td>1.3</td>
                                 <td>0.9 - 2</td>
                                 <td>{INR}</td>
                              </tr>
                           </tbody>
                        </table>
                     </div>
                  </text>
                  <entry>
                     <reference value="urn:uuid:e24012bb-a446-453f-a890-7e93b7d67f36"/>
                  </entry>
                  <entry>
                     <reference value="urn:uuid:88d25893-cc42-4f61-85ba-9dfb2a1413b3"/>
                  </entry>
                  <entry>
                     <reference value="urn:uuid:1a68d735-7b1a-461c-af97-092b4edf6090"/>
                  </entry>
               </section>
               <section>
                  <title value="Microbiology"/>
                  <code>
                     <coding>
                        <system value="http://loinc.org"/>
                        <code value="18725-2"/>
                        <display value="Microbiology studies"/>
                     </coding>
                     <text value="Microbiology"/>
                  </code>
                  <text>
                     <status value="generated"/>
                     <div xmlns="http://www.w3.org/1999/xhtml">
                        <h3 id="section-4">Microbiology</h3>
                        <table class="hl7__eu__lab__report">
                           <thead>
                              <tr>
                                 <th>Test</th>
                                 <th>29 Nov 2024</th>
                                 <th>Reference Range</th>
                                 <th>Unit</th>
                              </tr>
                           </thead>
                           <tbody>
                              <tr>
                                 <td>Influenza virus A RNA [Presence] in Respiratory system specimen by NAA with probe detection</td>
                                 <td>Negative</td>
                                 <td/>
                                 <td/>
                              </tr>
                              <tr>
                                 <td>Influenza virus B RNA [Presence] in Respiratory system specimen by NAA with probe detection</td>
                                 <td>Negative</td>
                                 <td/>
                                 <td/>
                              </tr>
                              <tr>
                                 <td>Respiratory syncytial virus RNA [Presence] in Respiratory system specimen by NAA with probe detection</td>
                                 <td>Negative</td>
                                 <td/>
                                 <td/>
                              </tr>
                              <tr>
                                 <td>Parainfluenza virus 1 RNA [Presence] in Respiratory system specimen by NAA with probe detection</td>
                                 <td>Negative</td>
                                 <td/>
                                 <td/>
                              </tr>
                              <tr>
                                 <td>Parainfluenza virus 2 RNA [Presence] in Respiratory system specimen by NAA with probe detection</td>
                                 <td>Negative</td>
                                 <td/>
                                 <td/>
                              </tr>
                              <tr>
                                 <td>Parainfluenza virus 3 RNA [Presence] in Respiratory system specimen by NAA with probe detection</td>
                                 <td>Negative</td>
                                 <td/>
                                 <td/>
                              </tr>
                              <tr>
                                 <td>Rhinovirus RNA [Presence] in Respiratory system specimen by NAA with probe detection</td>
                                 <td>Negative</td>
                                 <td/>
                                 <td/>
                              </tr>
                              <tr>
                                 <td>Human metapneumovirus RNA [Presence] in Respiratory system specimen by NAA with probe detection</td>
                                 <td>Negative</td>
                                 <td/>
                                 <td/>
                              </tr>
                              <tr>
                                 <td>Adenovirus A+B+C+D+E DNA [Presence] in Respiratory system specimen by NAA with probe detection</td>
                                 <td>Negative</td>
                                 <td/>
                                 <td/>
                              </tr>
                           </tbody>
                        </table>
                     </div>
                  </text>
                  <entry>
                     <reference value="urn:uuid:92683e01-0974-4632-b039-caef740c591b"/>
                  </entry>
                  <entry>
                     <reference value="urn:uuid:72180f84-d1ec-4be9-a1ff-ab658ef462e9"/>
                  </entry>
                  <entry>
                     <reference value="urn:uuid:ffb89620-dc19-49dc-854b-c5dab4bd2c6d"/>
                  </entry>
                  <entry>
                     <reference value="urn:uuid:7542840e-93fa-42ea-9b48-a7864c1341d8"/>
                  </entry>
                  <entry>
                     <reference value="urn:uuid:104d325a-4bf1-4034-9dc7-a71275ede168"/>
                  </entry>
                  <entry>
                     <reference value="urn:uuid:68f456f2-1b98-495b-aeda-bf622ab6d8b5"/>
                  </entry>
                  <entry>
                     <reference value="urn:uuid:663fc220-49cf-4fcf-bca1-0b2ee274d050"/>
                  </entry>
                  <entry>
                     <reference value="urn:uuid:712338f6-5fb7-441d-b53e-1344dfa9f2ac"/>
                  </entry>
                  <entry>
                     <reference value="urn:uuid:082318f0-f964-4d7d-94cf-ffe24abed9a2"/>
                  </entry>
               </section>
               <section>
                  <title value="Microbiology Panel"/>
                  <code>
                     <coding>
                        <system value="http://loinc.org"/>
                        <code value="18725-2"/>
                        <display value="Microbiology studies"/>
                     </coding>
                     <text value="Microbiology Panel"/>
                  </code>
                  <text>
                     <status value="generated"/>
                     <div xmlns="http://www.w3.org/1999/xhtml">
                        <h3 id="section-5">Microbiology Panel</h3>
                        <table class="hl7__eu__lab__report">
                           <thead>
                              <tr>
                                 <th>Test</th>
                                 <th>29 Nov 2024</th>
                                 <th>Reference Range</th>
                                 <th>Unit</th>
                              </tr>
                           </thead>
                           <tbody>
                              <tr>
                                 <td>SARS-CoV-2 (COVID-19) RNA panel - Respiratory system specimen by NAA with probe detection</td>
                                 <td>Detected</td>
                                 <td/>
                                 <td/>
                              </tr>
                           </tbody>
                        </table>
                     </div>
                  </text>
                  <entry>
                     <reference value="urn:uuid:59939ee8-14ae-46e6-b1af-2aa67d6a3c48"/>
                  </entry>
               </section>
            </section>
         </Composition>
      </resource>
   </entry>
   <entry>
      <fullUrl value="urn:uuid:7c037c06-a419-4541-ba41-477babe56ff5"/>
      <resource>
         <DiagnosticReport>
            <id value="7c037c06-a419-4541-ba41-477babe56ff5"/>
            <meta>
               <profile value="http://hl7.eu/fhir/laboratory/StructureDefinition/DiagnosticReport-eu-lab"/>
            </meta>
            <extension url="http://hl7.org/fhir/5.0/StructureDefinition/extension-DiagnosticReport.composition">
               <valueReference>
                  <reference value="urn:uuid:8384ef95-c246-4d9c-b316-2ced1238d322"/>
               </valueReference>
            </extension>
            <identifier>
               <system value="urn:oid:2.16.840.1.113883.2.51.999"/>
               <value value="28d68cc1-a4fb-4367-b4f1-767a7aad5ade"/>
               <assigner>
                  <display value="HL7 Europe"/>
               </assigner>
            </identifier>
            <status value="registered"/>
            <category>
               <coding>
                  <system value="http://loinc.org"/>
                  <code value="18719-5"/>
                  <display value="Chemistry studies (set)"/>
               </coding>
            </category>
            <code>
               <coding>
                  <system value="http://loinc.org"/>
                  <code value="11502-2"/>
                  <display value="Laboratory report"/>
               </coding>
            </code>
            <subject>
               <reference value="urn:uuid:310d06a2-ed93-460e-8c00-7bace0f9383a"/>
            </subject>
            <specimen>
               <reference value="urn:uuid:5deb0e83-58e3-4a17-834b-8ca9a326d989"/>
            </specimen>
            <specimen>
               <reference value="urn:uuid:541cf13c-1417-4e5e-bfd9-04486736e4a2"/>
            </specimen>
            <specimen>
               <reference value="urn:uuid:b239c4f3-0fa2-495d-842c-14c6d60548a6"/>
            </specimen>
            <specimen>
               <reference value="urn:uuid:c77afecb-b029-483e-bda0-52b515f677bd"/>
            </specimen>
            <specimen>
               <reference value="urn:uuid:5db6cb2c-36fa-41c5-af08-6c795fd86ed5"/>
            </specimen>
            <specimen>
               <reference value="urn:uuid:543ef1df-0709-4707-a371-aaa3183310b2"/>
            </specimen>
            <result>
               <reference value="urn:uuid:99a53288-b903-403a-9dfd-d33e40de4ebd"/>
            </result>
            <result>
               <reference value="urn:uuid:92683e01-0974-4632-b039-caef740c591b"/>
            </result>
            <result>
               <reference value="urn:uuid:72180f84-d1ec-4be9-a1ff-ab658ef462e9"/>
            </result>
            <result>
               <reference value="urn:uuid:ffb89620-dc19-49dc-854b-c5dab4bd2c6d"/>
            </result>
            <result>
               <reference value="urn:uuid:7542840e-93fa-42ea-9b48-a7864c1341d8"/>
            </result>
            <result>
               <reference value="urn:uuid:104d325a-4bf1-4034-9dc7-a71275ede168"/>
            </result>
            <result>
               <reference value="urn:uuid:68f456f2-1b98-495b-aeda-bf622ab6d8b5"/>
            </result>
            <result>
               <reference value="urn:uuid:663fc220-49cf-4fcf-bca1-0b2ee274d050"/>
            </result>
            <result>
               <reference value="urn:uuid:712338f6-5fb7-441d-b53e-1344dfa9f2ac"/>
            </result>
            <result>
               <reference value="urn:uuid:082318f0-f964-4d7d-94cf-ffe24abed9a2"/>
            </result>
            <result>
               <reference value="urn:uuid:59939ee8-14ae-46e6-b1af-2aa67d6a3c48"/>
            </result>
            <result>
               <reference value="urn:uuid:89b747ae-ad3a-4673-9877-1ed8fb69dad7"/>
            </result>
            <result>
               <reference value="urn:uuid:6a0f3261-978f-42b4-85cd-87dfdbe8d6ca"/>
            </result>
            <result>
               <reference value="urn:uuid:99168a07-4ea0-4d0e-88d9-ddc1e81c59eb"/>
            </result>
            <result>
               <reference value="urn:uuid:ac36901b-7712-4aa8-80ea-cbdb2820a6a7"/>
            </result>
            <result>
               <reference value="urn:uuid:2acf6d24-1e25-47ab-b0a2-10cea6c75187"/>
            </result>
            <result>
               <reference value="urn:uuid:a1765e28-4e8a-4360-bae2-903dfa5a9352"/>
            </result>
            <result>
               <reference value="urn:uuid:71f7ef3f-bfe0-48aa-a825-67d53bf8da44"/>
            </result>
            <result>
               <reference value="urn:uuid:e482cd96-5f8c-45c5-bcf1-6d46092de0da"/>
            </result>
            <result>
               <reference value="urn:uuid:fef55d59-0e44-4d7e-b1b0-7b338bc7a1ed"/>
            </result>
            <result>
               <reference value="urn:uuid:b5fed781-444a-42a3-8fe2-00f172de0313"/>
            </result>
            <result>
               <reference value="urn:uuid:fb45a033-cf0a-41e9-b1a1-b25b422635ae"/>
            </result>
            <result>
               <reference value="urn:uuid:22b1732d-c8e4-4e32-9de4-cc87f8bed564"/>
            </result>
            <result>
               <reference value="urn:uuid:954f1287-f0b3-4267-be9c-4f910cbd7ae4"/>
            </result>
            <result>
               <reference value="urn:uuid:6a4f2784-cc7c-4280-9bbf-3ff75a529026"/>
            </result>
            <result>
               <reference value="urn:uuid:df77d817-7b03-47aa-bca4-a64fbf0c2aa4"/>
            </result>
            <result>
               <reference value="urn:uuid:6e41417d-e10e-410b-844f-e0cb38c3dfb9"/>
            </result>
            <result>
               <reference value="urn:uuid:bf7de422-e8d4-48c4-b035-f1fb43493cef"/>
            </result>
            <result>
               <reference value="urn:uuid:7b2019a3-c94f-40b6-996a-4128a688a80d"/>
            </result>
            <result>
               <reference value="urn:uuid:e002e3bf-51ac-4ef5-bae6-45c6bb4c12f6"/>
            </result>
            <result>
               <reference value="urn:uuid:e3519c82-d942-46e8-90af-e6afe72a88f1"/>
            </result>
            <result>
               <reference value="urn:uuid:17d5278c-9ffd-4828-8200-ec182082befd"/>
            </result>
            <result>
               <reference value="urn:uuid:cd712d78-7a13-41d7-95f3-a5db4d140a1b"/>
            </result>
            <result>
               <reference value="urn:uuid:b20b813a-1d10-4aa5-b387-c613281c860f"/>
            </result>
            <result>
               <reference value="urn:uuid:0681f0b5-a062-46c5-bdd4-fab7af1deb14"/>
            </result>
            <result>
               <reference value="urn:uuid:bca09beb-dcef-4c02-b6dc-59c5468cea8a"/>
            </result>
            <result>
               <reference value="urn:uuid:7f4336ad-fb42-4a40-b749-b98f0699ec71"/>
            </result>
            <result>
               <reference value="urn:uuid:d22121b7-632b-483c-be52-aba2dc733902"/>
            </result>
            <result>
               <reference value="urn:uuid:85d428ba-7288-4449-a3a0-3d47435718d0"/>
            </result>
            <result>
               <reference value="urn:uuid:873cf0ba-a97e-4dad-8b56-85872f911ba6"/>
            </result>
            <result>
               <reference value="urn:uuid:bdd95efc-6f72-45b1-9644-d52037c50ac2"/>
            </result>
            <result>
               <reference value="urn:uuid:e973cea1-cf3f-4369-99ac-f4eb637b235d"/>
            </result>
            <result>
               <reference value="urn:uuid:97b6a341-1d12-4e8e-a16e-419866e9dd9c"/>
            </result>
            <result>
               <reference value="urn:uuid:b148b928-7e93-44bb-bb32-d2ba9bb56fb1"/>
            </result>
            <result>
               <reference value="urn:uuid:295fb8c9-836f-4799-9f16-fd222bb154b0"/>
            </result>
            <result>
               <reference value="urn:uuid:e24012bb-a446-453f-a890-7e93b7d67f36"/>
            </result>
            <result>
               <reference value="urn:uuid:840800d7-8189-4747-b6ad-3321a27d0d51"/>
            </result>
            <result>
               <reference value="urn:uuid:29c72e9f-ba33-4e57-ad22-1b52e0d1e861"/>
            </result>
            <result>
               <reference value="urn:uuid:9bb94348-6966-4a35-bf02-1ded09fe3d77"/>
            </result>
            <result>
               <reference value="urn:uuid:71ef5b1a-09a0-4cdd-8bb8-e8f50e22aa4b"/>
            </result>
            <result>
               <reference value="urn:uuid:1b3d8c0a-65b3-4213-bc8f-b2d8b8db6686"/>
            </result>
            <result>
               <reference value="urn:uuid:88d25893-cc42-4f61-85ba-9dfb2a1413b3"/>
            </result>
            <result>
               <reference value="urn:uuid:1a68d735-7b1a-461c-af97-092b4edf6090"/>
            </result>
            <result>
               <reference value="urn:uuid:d8b21a0c-1713-418f-a921-edfb209c1b59"/>
            </result>
         </DiagnosticReport>
      </resource>
   </entry>
   <entry>
      <fullUrl value="urn:uuid:310d06a2-ed93-460e-8c00-7bace0f9383a"/>
      <resource>
         <Patient>
            <id value="310d06a2-ed93-460e-8c00-7bace0f9383a"/>
            <meta>
               <profile value="http://hl7.eu/fhir/laboratory/StructureDefinition/Patient-eu-lab"/>
            </meta>
            <identifier>
               <type>
                  <coding>
                     <system value="http://terminology.hl7.org/CodeSystem/v2-0203"/>
                     <code value="NI"/>
                  </coding>
               </type>
               <system value="http://ec.europa.eu/identifier/eci"/>
               <value value="6077-888840-8"/>
            </identifier>
            <identifier>
               <type>
                  <coding>
                     <system value="http://terminology.hl7.org/CodeSystem/v2-0203"/>
                     <code value="MR"/>
                  </coding>
               </type>
               <system value="http://local.setting.eu/identifier"/>
               <value value="860201e7-16b6-4599-a918-ecca8ffbea0d"/>
            </identifier>
            <name>
               <text value="Eliane Kerver"/>
               <family value="Kerver"/>
               <given value="Eliane"/>
            </name>
            <telecom>
               <system value="phone"/>
               <value value="+31 06-58675866"/>
            </telecom>
            <gender value="female"/>
            <birthDate value="1969-02-25"/>
            <address>
               <use value="home"/>
               <type value="physical"/>
               <line value="Nieuweweg 134"/>
               <city value="Hoogerheide"/>
               <postalCode value="4631 TC"/>
               <country value="Netherlands"/>
            </address>
         </Patient>
      </resource>
   </entry>
   <entry>
      <fullUrl value="urn:uuid:f0c64eec-67ff-4472-894b-eb20b627430e"/>
      <resource>
         <ServiceRequest>
            <id value="f0c64eec-67ff-4472-894b-eb20b627430e"/>
            <meta>
               <profile value="http://hl7.eu/fhir/laboratory/StructureDefinition/ServiceRequest-eu-lab"/>
            </meta>
            <identifier>
               <system value="http://example.org"/>
               <value value="7add8d4b-c103-4997-bb28-2fceaee0109d"/>
            </identifier>
            <status value="active"/>
            <intent value="order"/>
            <code>
               <coding>
                  <system value="http://snomed.info/sct"/>
                  <code value="108252007"/>
                  <display value="Laboratory procedure"/>
               </coding>
            </code>
            <subject>
               <reference value="urn:uuid:310d06a2-ed93-460e-8c00-7bace0f9383a"/>
            </subject>
            <requester>
               <reference value="urn:uuid:4bc324d6-7617-4e41-895f-5bf6f8b5cd04"/>
            </requester>
            <specimen>
               <reference value="urn:uuid:5deb0e83-58e3-4a17-834b-8ca9a326d989"/>
            </specimen>
            <specimen>
               <reference value="urn:uuid:541cf13c-1417-4e5e-bfd9-04486736e4a2"/>
            </specimen>
            <specimen>
               <reference value="urn:uuid:b239c4f3-0fa2-495d-842c-14c6d60548a6"/>
            </specimen>
            <specimen>
               <reference value="urn:uuid:c77afecb-b029-483e-bda0-52b515f677bd"/>
            </specimen>
            <specimen>
               <reference value="urn:uuid:5db6cb2c-36fa-41c5-af08-6c795fd86ed5"/>
            </specimen>
            <specimen>
               <reference value="urn:uuid:543ef1df-0709-4707-a371-aaa3183310b2"/>
            </specimen>
         </ServiceRequest>
      </resource>
   </entry>
   <entry>
      <fullUrl value="urn:uuid:4bc324d6-7617-4e41-895f-5bf6f8b5cd04"/>
      <resource>
         <PractitionerRole>
            <id value="4bc324d6-7617-4e41-895f-5bf6f8b5cd04"/>
            <meta>
               <profile value="http://hl7.eu/fhir/laboratory/StructureDefinition/PractitionerRole-eu-lab"/>
            </meta>
            <organization>
               <reference value="urn:uuid:a2c6e0dc-8881-4326-99f3-05d1b1332978"/>
            </organization>
         </PractitionerRole>
      </resource>
   </entry>
   <entry>
      <fullUrl value="urn:uuid:a2c6e0dc-8881-4326-99f3-05d1b1332978"/>
      <resource>
         <Organization>
            <id value="a2c6e0dc-8881-4326-99f3-05d1b1332978"/>
            <meta>
               <profile value="http://hl7.org/fhir/uv/ips/StructureDefinition/Organization-uv-ips"/>
            </meta>
            <identifier>
               <system value="urn:oid:2.16.840.1.113883.2.51.999"/>
               <value value="a87be826-cf0a-4086-85ed-b84d1f3124fe"/>
               <assigner>
                  <display value="HL7 Europe"/>
               </assigner>
            </identifier>
            <name value="Liduina"/>
            <address>
               <city value="Hulst"/>
               <postalCode value="4561"/>
               <country value="nl"/>
            </address>
         </Organization>
      </resource>
   </entry>
   <entry>
      <fullUrl value="urn:uuid:5c83c44d-c725-4d9c-828b-d9e07f136854"/>
      <resource>
         <PractitionerRole>
            <id value="5c83c44d-c725-4d9c-828b-d9e07f136854"/>
            <meta>
               <profile value="http://hl7.eu/fhir/laboratory/StructureDefinition/PractitionerRole-eu-lab"/>
            </meta>
            <practitioner>
               <reference value="urn:uuid:cd513a57-6714-42b5-a786-8d74ab6a3a44"/>
            </practitioner>
         </PractitionerRole>
      </resource>
   </entry>
   <entry>
      <fullUrl value="urn:uuid:cd513a57-6714-42b5-a786-8d74ab6a3a44"/>
      <resource>
         <Practitioner>
            <id value="cd513a57-6714-42b5-a786-8d74ab6a3a44"/>
            <meta>
               <profile value="http://hl7.eu/fhir/laboratory/StructureDefinition/Practitioner-eu-lab"/>
            </meta>
            <identifier>
               <system value="urn:oid:2.16.840.1.113883.2.51.999"/>
               <value value="0d93e115-c03a-4f96-af5e-91a0a3dd2e7a"/>
               <assigner>
                  <display value="HL7 Europe"/>
               </assigner>
            </identifier>
            <name>
               <family value="Ample"/>
               <given value="Ex"/>
               <prefix value="dr"/>
            </name>
            <address>
               <line value="Boulevard du Jardin Botanique 32"/>
               <city value="Brussels"/>
               <postalCode value="1000"/>
            </address>
         </Practitioner>
      </resource>
   </entry>
   <entry>
      <fullUrl value="urn:uuid:5deb0e83-58e3-4a17-834b-8ca9a326d989"/>
      <resource>
         <Specimen>
            <id value="5deb0e83-58e3-4a17-834b-8ca9a326d989"/>
            <meta>
               <profile value="http://hl7.eu/fhir/laboratory/StructureDefinition/Specimen-eu-lab"/>
            </meta>
            <status value="available"/>
            <type>
               <coding>
                  <system value="http://snomed.info/sct"/>
                  <code value="122552005"/>
                  <display value="Arterial blood specimen (specimen)"/>
               </coding>
            </type>
            <collection>
               <collectedDateTime value="2024-11-29"/>
            </collection>
         </Specimen>
      </resource>
   </entry>
   <entry>
      <fullUrl value="urn:uuid:541cf13c-1417-4e5e-bfd9-04486736e4a2"/>
      <resource>
         <Specimen>
            <id value="541cf13c-1417-4e5e-bfd9-04486736e4a2"/>
            <meta>
               <profile value="http://hl7.eu/fhir/laboratory/StructureDefinition/Specimen-eu-lab"/>
            </meta>
            <status value="available"/>
            <type>
               <coding>
                  <system value="http://snomed.info/sct"/>
                  <code value="258603007"/>
                  <display value="Respiratory specimen (specimen)"/>
               </coding>
            </type>
            <collection>
               <collectedDateTime value="2024-11-29"/>
            </collection>
         </Specimen>
      </resource>
   </entry>
   <entry>
      <fullUrl value="urn:uuid:b239c4f3-0fa2-495d-842c-14c6d60548a6"/>
      <resource>
         <Specimen>
            <id value="b239c4f3-0fa2-495d-842c-14c6d60548a6"/>
            <meta>
               <profile value="http://hl7.eu/fhir/laboratory/StructureDefinition/Specimen-eu-lab"/>
            </meta>
            <status value="available"/>
            <type>
               <coding>
                  <system value="http://snomed.info/sct"/>
                  <code value="258580003"/>
                  <display value="Whole blood specimen (specimen)"/>
               </coding>
            </type>
            <collection>
               <collectedDateTime value="2024-11-29"/>
            </collection>
         </Specimen>
      </resource>
   </entry>
   <entry>
      <fullUrl value="urn:uuid:c77afecb-b029-483e-bda0-52b515f677bd"/>
      <resource>
         <Specimen>
            <id value="c77afecb-b029-483e-bda0-52b515f677bd"/>
            <meta>
               <profile value="http://hl7.eu/fhir/laboratory/StructureDefinition/Specimen-eu-lab"/>
            </meta>
            <status value="available"/>
            <type>
               <coding>
                  <system value="http://snomed.info/sct"/>
                  <code value="258580003"/>
                  <display value="Whole blood specimen (specimen)"/>
               </coding>
            </type>
            <collection>
               <collectedDateTime value="2024-11-29"/>
            </collection>
         </Specimen>
      </resource>
   </entry>
   <entry>
      <fullUrl value="urn:uuid:5db6cb2c-36fa-41c5-af08-6c795fd86ed5"/>
      <resource>
         <Specimen>
            <id value="5db6cb2c-36fa-41c5-af08-6c795fd86ed5"/>
            <meta>
               <profile value="http://hl7.eu/fhir/laboratory/StructureDefinition/Specimen-eu-lab"/>
            </meta>
            <status value="available"/>
            <type>
               <coding>
                  <system value="http://snomed.info/sct"/>
                  <code value="122592007"/>
                  <display value="Acellular blood (serum or plasma) specimen (specimen)"/>
               </coding>
            </type>
            <collection>
               <collectedDateTime value="2024-11-29"/>
            </collection>
         </Specimen>
      </resource>
   </entry>
   <entry>
      <fullUrl value="urn:uuid:543ef1df-0709-4707-a371-aaa3183310b2"/>
      <resource>
         <Specimen>
            <id value="543ef1df-0709-4707-a371-aaa3183310b2"/>
            <meta>
               <profile value="http://hl7.eu/fhir/laboratory/StructureDefinition/Specimen-eu-lab"/>
            </meta>
            <status value="available"/>
            <type>
               <coding>
                  <system value="http://snomed.info/sct"/>
                  <code value="119362004"/>
                  <display value="Platelet poor plasma specimen (specimen) "/>
               </coding>
            </type>
            <collection>
               <collectedDateTime value="2024-11-29"/>
            </collection>
         </Specimen>
      </resource>
   </entry>
   <entry>
      <fullUrl value="urn:uuid:99a53288-b903-403a-9dfd-d33e40de4ebd"/>
      <resource>
         <Observation>
            <id value="99a53288-b903-403a-9dfd-d33e40de4ebd"/>
            <meta>
               <profile value="http://hl7.eu/fhir/laboratory/StructureDefinition/Observation-resultslab-eu-lab"/>
            </meta>
            <status value="final"/>
            <category>
               <coding>
                  <system value="http://terminology.hl7.org/CodeSystem/observation-category"/>
                  <code value="laboratory"/>
               </coding>
            </category>
            <code>
               <coding>
                  <system value="http://loinc.org"/>
                  <code value="2708-6"/>
                  <display value="Oxygen saturation in Arterial blood"/>
               </coding>
               <text value="Oxygen saturation in Arterial blood"/>
            </code>
            <subject>
               <reference value="urn:uuid:310d06a2-ed93-460e-8c00-7bace0f9383a"/>
            </subject>
            <effectiveDateTime value="2024-11-29"/>
            <performer>
               <display value="The Central European Lab"/>
            </performer>
            <valueQuantity>
               <value value="75.9"/>
               <unit value="%"/>
               <system value="http://unitsofmeasure.org"/>
               <code value="%"/>
            </valueQuantity>
            <interpretation>
               <coding>
                  <system value="http://terminology.hl7.org/CodeSystem/v3-ObservationInterpretation"/>
                  <code value="L"/>
                  <display value="Low"/>
               </coding>
            </interpretation>
            <specimen>
               <reference value="urn:uuid:5deb0e83-58e3-4a17-834b-8ca9a326d989"/>
            </specimen>
            <referenceRange>
               <low>
                  <value value="95"/>
                  <system value="http://unitsofmeasure.org"/>
                  <code value="%"/>
               </low>
            </referenceRange>
            <referenceRange>
               <high>
                  <value value="100"/>
                  <system value="http://unitsofmeasure.org"/>
                  <code value="%"/>
               </high>
            </referenceRange>
         </Observation>
      </resource>
   </entry>
   <entry>
      <fullUrl value="urn:uuid:92683e01-0974-4632-b039-caef740c591b"/>
      <resource>
         <Observation>
            <id value="92683e01-0974-4632-b039-caef740c591b"/>
            <meta>
               <profile value="http://hl7.eu/fhir/laboratory/StructureDefinition/Observation-resultslab-eu-lab"/>
            </meta>
            <status value="final"/>
            <category>
               <coding>
                  <system value="http://terminology.hl7.org/CodeSystem/observation-category"/>
                  <code value="laboratory"/>
               </coding>
            </category>
            <code>
               <coding>
                  <system value="http://loinc.org"/>
                  <code value="92142-9"/>
                  <display value="Influenza virus A RNA [Presence] in Respiratory system specimen by NAA with probe detection"/>
               </coding>
               <text value="Influenza virus A RNA [Presence] in Respiratory system specimen by NAA with probe detection"/>
            </code>
            <subject>
               <reference value="urn:uuid:310d06a2-ed93-460e-8c00-7bace0f9383a"/>
            </subject>
            <effectiveDateTime value="2024-11-29"/>
            <performer>
               <display value="The Central European Lab"/>
            </performer>
            <valueCodeableConcept>
               <coding>
                  <system value="http://snomed.info/sct"/>
                  <code value="260385009"/>
                  <display value="Negative"/>
               </coding>
            </valueCodeableConcept>
            <specimen>
               <reference value="urn:uuid:541cf13c-1417-4e5e-bfd9-04486736e4a2"/>
            </specimen>
         </Observation>
      </resource>
   </entry>
   <entry>
      <fullUrl value="urn:uuid:72180f84-d1ec-4be9-a1ff-ab658ef462e9"/>
      <resource>
         <Observation>
            <id value="72180f84-d1ec-4be9-a1ff-ab658ef462e9"/>
            <meta>
               <profile value="http://hl7.eu/fhir/laboratory/StructureDefinition/Observation-resultslab-eu-lab"/>
            </meta>
            <status value="final"/>
            <category>
               <coding>
                  <system value="http://terminology.hl7.org/CodeSystem/observation-category"/>
                  <code value="laboratory"/>
               </coding>
            </category>
            <code>
               <coding>
                  <system value="http://loinc.org"/>
                  <code value="92141-1"/>
                  <display value="Influenza virus B RNA [Presence] in Respiratory system specimen by NAA with probe detection"/>
               </coding>
               <text value="Influenza virus B RNA [Presence] in Respiratory system specimen by NAA with probe detection"/>
            </code>
            <subject>
               <reference value="urn:uuid:310d06a2-ed93-460e-8c00-7bace0f9383a"/>
            </subject>
            <effectiveDateTime value="2024-11-29"/>
            <performer>
               <display value="The Central European Lab"/>
            </performer>
            <valueCodeableConcept>
               <coding>
                  <system value="http://snomed.info/sct"/>
                  <code value="260385009"/>
                  <display value="Negative"/>
               </coding>
            </valueCodeableConcept>
            <specimen>
               <reference value="urn:uuid:541cf13c-1417-4e5e-bfd9-04486736e4a2"/>
            </specimen>
         </Observation>
      </resource>
   </entry>
   <entry>
      <fullUrl value="urn:uuid:ffb89620-dc19-49dc-854b-c5dab4bd2c6d"/>
      <resource>
         <Observation>
            <id value="ffb89620-dc19-49dc-854b-c5dab4bd2c6d"/>
            <meta>
               <profile value="http://hl7.eu/fhir/laboratory/StructureDefinition/Observation-resultslab-eu-lab"/>
            </meta>
            <status value="final"/>
            <category>
               <coding>
                  <system value="http://terminology.hl7.org/CodeSystem/observation-category"/>
                  <code value="laboratory"/>
               </coding>
            </category>
            <code>
               <coding>
                  <system value="http://loinc.org"/>
                  <code value="92131-2"/>
                  <display value="Respiratory syncytial virus RNA [Presence] in Respiratory system specimen by NAA with probe detection"/>
               </coding>
               <text value="Respiratory syncytial virus RNA [Presence] in Respiratory system specimen by NAA with probe detection"/>
            </code>
            <subject>
               <reference value="urn:uuid:310d06a2-ed93-460e-8c00-7bace0f9383a"/>
            </subject>
            <effectiveDateTime value="2024-11-29"/>
            <performer>
               <display value="The Central European Lab"/>
            </performer>
            <valueCodeableConcept>
               <coding>
                  <system value="http://snomed.info/sct"/>
                  <code value="260385009"/>
                  <display value="Negative"/>
               </coding>
            </valueCodeableConcept>
            <specimen>
               <reference value="urn:uuid:541cf13c-1417-4e5e-bfd9-04486736e4a2"/>
            </specimen>
         </Observation>
      </resource>
   </entry>
   <entry>
      <fullUrl value="urn:uuid:7542840e-93fa-42ea-9b48-a7864c1341d8"/>
      <resource>
         <Observation>
            <id value="7542840e-93fa-42ea-9b48-a7864c1341d8"/>
            <meta>
               <profile value="http://hl7.eu/fhir/laboratory/StructureDefinition/Observation-resultslab-eu-lab"/>
            </meta>
            <status value="final"/>
            <category>
               <coding>
                  <system value="http://terminology.hl7.org/CodeSystem/observation-category"/>
                  <code value="laboratory"/>
               </coding>
            </category>
            <code>
               <coding>
                  <system value="http://loinc.org"/>
                  <code value="92140-3"/>
                  <display value="Parainfluenza virus 1 RNA [Presence] in Respiratory system specimen by NAA with probe detection"/>
               </coding>
               <text value="Parainfluenza virus 1 RNA [Presence] in Respiratory system specimen by NAA with probe detection"/>
            </code>
            <subject>
               <reference value="urn:uuid:310d06a2-ed93-460e-8c00-7bace0f9383a"/>
            </subject>
            <effectiveDateTime value="2024-11-29"/>
            <performer>
               <display value="The Central European Lab"/>
            </performer>
            <valueCodeableConcept>
               <coding>
                  <system value="http://snomed.info/sct"/>
                  <code value="260385009"/>
                  <display value="Negative"/>
               </coding>
            </valueCodeableConcept>
            <specimen>
               <reference value="urn:uuid:541cf13c-1417-4e5e-bfd9-04486736e4a2"/>
            </specimen>
         </Observation>
      </resource>
   </entry>
   <entry>
      <fullUrl value="urn:uuid:104d325a-4bf1-4034-9dc7-a71275ede168"/>
      <resource>
         <Observation>
            <id value="104d325a-4bf1-4034-9dc7-a71275ede168"/>
            <meta>
               <profile value="http://hl7.eu/fhir/laboratory/StructureDefinition/Observation-resultslab-eu-lab"/>
            </meta>
            <status value="final"/>
            <category>
               <coding>
                  <system value="http://terminology.hl7.org/CodeSystem/observation-category"/>
                  <code value="laboratory"/>
               </coding>
            </category>
            <code>
               <coding>
                  <system value="http://loinc.org"/>
                  <code value="92139-5"/>
                  <display value="Parainfluenza virus 2 RNA [Presence] in Respiratory system specimen by NAA with probe detection"/>
               </coding>
               <text value="Parainfluenza virus 2 RNA [Presence] in Respiratory system specimen by NAA with probe detection"/>
            </code>
            <subject>
               <reference value="urn:uuid:310d06a2-ed93-460e-8c00-7bace0f9383a"/>
            </subject>
            <effectiveDateTime value="2024-11-29"/>
            <performer>
               <display value="The Central European Lab"/>
            </performer>
            <valueCodeableConcept>
               <coding>
                  <system value="http://snomed.info/sct"/>
                  <code value="260385009"/>
                  <display value="Negative"/>
               </coding>
            </valueCodeableConcept>
            <specimen>
               <reference value="urn:uuid:541cf13c-1417-4e5e-bfd9-04486736e4a2"/>
            </specimen>
         </Observation>
      </resource>
   </entry>
   <entry>
      <fullUrl value="urn:uuid:68f456f2-1b98-495b-aeda-bf622ab6d8b5"/>
      <resource>
         <Observation>
            <id value="68f456f2-1b98-495b-aeda-bf622ab6d8b5"/>
            <meta>
               <profile value="http://hl7.eu/fhir/laboratory/StructureDefinition/Observation-resultslab-eu-lab"/>
            </meta>
            <status value="final"/>
            <category>
               <coding>
                  <system value="http://terminology.hl7.org/CodeSystem/observation-category"/>
                  <code value="laboratory"/>
               </coding>
            </category>
            <code>
               <coding>
                  <system value="http://loinc.org"/>
                  <code value="92138-7"/>
                  <display value="Parainfluenza virus 3 RNA [Presence] in Respiratory system specimen by NAA with probe detection"/>
               </coding>
               <text value="Parainfluenza virus 3 RNA [Presence] in Respiratory system specimen by NAA with probe detection"/>
            </code>
            <subject>
               <reference value="urn:uuid:310d06a2-ed93-460e-8c00-7bace0f9383a"/>
            </subject>
            <effectiveDateTime value="2024-11-29"/>
            <performer>
               <display value="The Central European Lab"/>
            </performer>
            <valueCodeableConcept>
               <coding>
                  <system value="http://snomed.info/sct"/>
                  <code value="260385009"/>
                  <display value="Negative"/>
               </coding>
            </valueCodeableConcept>
            <specimen>
               <reference value="urn:uuid:541cf13c-1417-4e5e-bfd9-04486736e4a2"/>
            </specimen>
         </Observation>
      </resource>
   </entry>
   <entry>
      <fullUrl value="urn:uuid:663fc220-49cf-4fcf-bca1-0b2ee274d050"/>
      <resource>
         <Observation>
            <id value="663fc220-49cf-4fcf-bca1-0b2ee274d050"/>
            <meta>
               <profile value="http://hl7.eu/fhir/laboratory/StructureDefinition/Observation-resultslab-eu-lab"/>
            </meta>
            <status value="final"/>
            <category>
               <coding>
                  <system value="http://terminology.hl7.org/CodeSystem/observation-category"/>
                  <code value="laboratory"/>
               </coding>
            </category>
            <code>
               <coding>
                  <system value="http://loinc.org"/>
                  <code value="92130-4"/>
                  <display value="Rhinovirus RNA [Presence] in Respiratory system specimen by NAA with probe detection"/>
               </coding>
               <text value="Rhinovirus RNA [Presence] in Respiratory system specimen by NAA with probe detection"/>
            </code>
            <subject>
               <reference value="urn:uuid:310d06a2-ed93-460e-8c00-7bace0f9383a"/>
            </subject>
            <effectiveDateTime value="2024-11-29"/>
            <performer>
               <display value="The Central European Lab"/>
            </performer>
            <valueCodeableConcept>
               <coding>
                  <system value="http://snomed.info/sct"/>
                  <code value="260385009"/>
                  <display value="Negative"/>
               </coding>
            </valueCodeableConcept>
            <specimen>
               <reference value="urn:uuid:541cf13c-1417-4e5e-bfd9-04486736e4a2"/>
            </specimen>
         </Observation>
      </resource>
   </entry>
   <entry>
      <fullUrl value="urn:uuid:712338f6-5fb7-441d-b53e-1344dfa9f2ac"/>
      <resource>
         <Observation>
            <id value="712338f6-5fb7-441d-b53e-1344dfa9f2ac"/>
            <meta>
               <profile value="http://hl7.eu/fhir/laboratory/StructureDefinition/Observation-resultslab-eu-lab"/>
            </meta>
            <status value="final"/>
            <category>
               <coding>
                  <system value="http://terminology.hl7.org/CodeSystem/observation-category"/>
                  <code value="laboratory"/>
               </coding>
            </category>
            <code>
               <coding>
                  <system value="http://loinc.org"/>
                  <code value="92134-6"/>
                  <display value="Human metapneumovirus RNA [Presence] in Respiratory system specimen by NAA with probe detection"/>
               </coding>
               <text value="Human metapneumovirus RNA [Presence] in Respiratory system specimen by NAA with probe detection"/>
            </code>
            <subject>
               <reference value="urn:uuid:310d06a2-ed93-460e-8c00-7bace0f9383a"/>
            </subject>
            <effectiveDateTime value="2024-11-29"/>
            <performer>
               <display value="The Central European Lab"/>
            </performer>
            <valueCodeableConcept>
               <coding>
                  <system value="http://snomed.info/sct"/>
                  <code value="260385009"/>
                  <display value="Negative"/>
               </coding>
            </valueCodeableConcept>
            <specimen>
               <reference value="urn:uuid:541cf13c-1417-4e5e-bfd9-04486736e4a2"/>
            </specimen>
         </Observation>
      </resource>
   </entry>
   <entry>
      <fullUrl value="urn:uuid:082318f0-f964-4d7d-94cf-ffe24abed9a2"/>
      <resource>
         <Observation>
            <id value="082318f0-f964-4d7d-94cf-ffe24abed9a2"/>
            <meta>
               <profile value="http://hl7.eu/fhir/laboratory/StructureDefinition/Observation-resultslab-eu-lab"/>
            </meta>
            <status value="final"/>
            <category>
               <coding>
                  <system value="http://terminology.hl7.org/CodeSystem/observation-category"/>
                  <code value="laboratory"/>
               </coding>
            </category>
            <code>
               <coding>
                  <system value="http://loinc.org"/>
                  <code value="94040-3"/>
                  <display value="Adenovirus A+B+C+D+E DNA [Presence] in Respiratory system specimen by NAA with probe detection"/>
               </coding>
               <text value="Adenovirus A+B+C+D+E DNA [Presence] in Respiratory system specimen by NAA with probe detection"/>
            </code>
            <subject>
               <reference value="urn:uuid:310d06a2-ed93-460e-8c00-7bace0f9383a"/>
            </subject>
            <effectiveDateTime value="2024-11-29"/>
            <performer>
               <display value="The Central European Lab"/>
            </performer>
            <valueCodeableConcept>
               <coding>
                  <system value="http://snomed.info/sct"/>
                  <code value="260385009"/>
                  <display value="Negative"/>
               </coding>
            </valueCodeableConcept>
            <specimen>
               <reference value="urn:uuid:541cf13c-1417-4e5e-bfd9-04486736e4a2"/>
            </specimen>
         </Observation>
      </resource>
   </entry>
   <entry>
      <fullUrl value="urn:uuid:59939ee8-14ae-46e6-b1af-2aa67d6a3c48"/>
      <resource>
         <Observation>
            <id value="59939ee8-14ae-46e6-b1af-2aa67d6a3c48"/>
            <meta>
               <profile value="http://hl7.eu/fhir/laboratory/StructureDefinition/Observation-resultslab-eu-lab"/>
            </meta>
            <status value="final"/>
            <category>
               <coding>
                  <system value="http://terminology.hl7.org/CodeSystem/observation-category"/>
                  <code value="laboratory"/>
               </coding>
            </category>
            <code>
               <coding>
                  <system value="http://loinc.org"/>
                  <code value="94531-1"/>
                  <display value="SARS-CoV-2 (COVID-19) RNA panel - Respiratory system specimen by NAA with probe detection"/>
               </coding>
               <text value="SARS-CoV-2 (COVID-19) RNA panel - Respiratory system specimen by NAA with probe detection"/>
            </code>
            <subject>
               <reference value="urn:uuid:310d06a2-ed93-460e-8c00-7bace0f9383a"/>
            </subject>
            <effectiveDateTime value="2024-11-29"/>
            <performer>
               <display value="The Central European Lab"/>
            </performer>
            <valueCodeableConcept>
               <coding>
                  <system value="http://snomed.info/sct"/>
                  <code value="260373001"/>
                  <display value="Detected"/>
               </coding>
            </valueCodeableConcept>
            <specimen>
               <reference value="urn:uuid:541cf13c-1417-4e5e-bfd9-04486736e4a2"/>
            </specimen>
         </Observation>
      </resource>
   </entry>
   <entry>
      <fullUrl value="urn:uuid:89b747ae-ad3a-4673-9877-1ed8fb69dad7"/>
      <resource>
         <Observation>
            <id value="89b747ae-ad3a-4673-9877-1ed8fb69dad7"/>
            <meta>
               <profile value="http://hl7.eu/fhir/laboratory/StructureDefinition/Observation-resultslab-eu-lab"/>
            </meta>
            <status value="final"/>
            <category>
               <coding>
                  <system value="http://terminology.hl7.org/CodeSystem/observation-category"/>
                  <code value="laboratory"/>
               </coding>
            </category>
            <code>
               <coding>
                  <system value="http://loinc.org"/>
                  <code value="2708-6"/>
                  <display value="Oxygen saturation in Arterial blood"/>
               </coding>
               <text value="Oxygen saturation in Arterial blood"/>
            </code>
            <subject>
               <reference value="urn:uuid:310d06a2-ed93-460e-8c00-7bace0f9383a"/>
            </subject>
            <effectiveDateTime value="2024-11-29"/>
            <performer>
               <display value="The Central European Lab"/>
            </performer>
            <valueQuantity>
               <value value="88.9"/>
               <unit value="%"/>
               <system value="http://unitsofmeasure.org"/>
               <code value="%"/>
            </valueQuantity>
            <interpretation>
               <coding>
                  <system value="http://terminology.hl7.org/CodeSystem/v3-ObservationInterpretation"/>
                  <code value="L"/>
                  <display value="Low"/>
               </coding>
            </interpretation>
            <specimen>
               <reference value="urn:uuid:5deb0e83-58e3-4a17-834b-8ca9a326d989"/>
            </specimen>
            <referenceRange>
               <low>
                  <value value="95"/>
                  <system value="http://unitsofmeasure.org"/>
                  <code value="%"/>
               </low>
            </referenceRange>
            <referenceRange>
               <high>
                  <value value="100"/>
                  <system value="http://unitsofmeasure.org"/>
                  <code value="%"/>
               </high>
            </referenceRange>
         </Observation>
      </resource>
   </entry>
   <entry>
      <fullUrl value="urn:uuid:6a0f3261-978f-42b4-85cd-87dfdbe8d6ca"/>
      <resource>
         <Observation>
            <id value="6a0f3261-978f-42b4-85cd-87dfdbe8d6ca"/>
            <meta>
               <profile value="http://hl7.eu/fhir/laboratory/StructureDefinition/Observation-resultslab-eu-lab"/>
            </meta>
            <status value="final"/>
            <category>
               <coding>
                  <system value="http://terminology.hl7.org/CodeSystem/observation-category"/>
                  <code value="laboratory"/>
               </coding>
            </category>
            <code>
               <coding>
                  <system value="http://loinc.org"/>
                  <code value="6690-2"/>
                  <display value="Leukocytes [#/volume] in Blood by Automated count"/>
               </coding>
               <text value="Leukocytes [#/volume] in Blood by Automated count"/>
            </code>
            <subject>
               <reference value="urn:uuid:310d06a2-ed93-460e-8c00-7bace0f9383a"/>
            </subject>
            <effectiveDateTime value="2024-11-29"/>
            <performer>
               <display value="The Central European Lab"/>
            </performer>
            <valueQuantity>
               <value value="3.8"/>
               <unit value="10^3/uL"/>
               <system value="http://unitsofmeasure.org"/>
               <code value="10*3/uL"/>
            </valueQuantity>
            <specimen>
               <reference value="urn:uuid:b239c4f3-0fa2-495d-842c-14c6d60548a6"/>
            </specimen>
            <referenceRange>
               <low>
                  <value value="3.4"/>
                  <system value="http://unitsofmeasure.org"/>
                  <code value="10^3/uL"/>
               </low>
            </referenceRange>
            <referenceRange>
               <high>
                  <value value="10.8"/>
                  <system value="http://unitsofmeasure.org"/>
                  <code value="10^3/uL"/>
               </high>
            </referenceRange>
         </Observation>
      </resource>
   </entry>
   <entry>
      <fullUrl value="urn:uuid:99168a07-4ea0-4d0e-88d9-ddc1e81c59eb"/>
      <resource>
         <Observation>
            <id value="99168a07-4ea0-4d0e-88d9-ddc1e81c59eb"/>
            <meta>
               <profile value="http://hl7.eu/fhir/laboratory/StructureDefinition/Observation-resultslab-eu-lab"/>
            </meta>
            <status value="final"/>
            <category>
               <coding>
                  <system value="http://terminology.hl7.org/CodeSystem/observation-category"/>
                  <code value="laboratory"/>
               </coding>
            </category>
            <code>
               <coding>
                  <system value="http://loinc.org"/>
                  <code value="789-8"/>
                  <display value="Erythrocytes [#/volume] in Blood by Automated count"/>
               </coding>
               <text value="Erythrocytes [#/volume] in Blood by Automated count"/>
            </code>
            <subject>
               <reference value="urn:uuid:310d06a2-ed93-460e-8c00-7bace0f9383a"/>
            </subject>
            <effectiveDateTime value="2024-11-29"/>
            <performer>
               <display value="The Central European Lab"/>
            </performer>
            <valueQuantity>
               <value value="5.2"/>
               <unit value="10^6/uL"/>
               <system value="http://unitsofmeasure.org"/>
               <code value="10*6/uL"/>
            </valueQuantity>
            <specimen>
               <reference value="urn:uuid:b239c4f3-0fa2-495d-842c-14c6d60548a6"/>
            </specimen>
            <referenceRange>
               <low>
                  <value value="4.2"/>
                  <system value="http://unitsofmeasure.org"/>
                  <code value="10^6/uL"/>
               </low>
            </referenceRange>
            <referenceRange>
               <high>
                  <value value="5.8"/>
                  <system value="http://unitsofmeasure.org"/>
                  <code value="10^6/uL"/>
               </high>
            </referenceRange>
         </Observation>
      </resource>
   </entry>
   <entry>
      <fullUrl value="urn:uuid:ac36901b-7712-4aa8-80ea-cbdb2820a6a7"/>
      <resource>
         <Observation>
            <id value="ac36901b-7712-4aa8-80ea-cbdb2820a6a7"/>
            <meta>
               <profile value="http://hl7.eu/fhir/laboratory/StructureDefinition/Observation-resultslab-eu-lab"/>
            </meta>
            <status value="final"/>
            <category>
               <coding>
                  <system value="http://terminology.hl7.org/CodeSystem/observation-category"/>
                  <code value="laboratory"/>
               </coding>
            </category>
            <code>
               <coding>
                  <system value="http://loinc.org"/>
                  <code value="718-7"/>
                  <display value="Hemoglobin [Mass/volume] in Blood"/>
               </coding>
               <text value="Hemoglobin [Mass/volume] in Blood"/>
            </code>
            <subject>
               <reference value="urn:uuid:310d06a2-ed93-460e-8c00-7bace0f9383a"/>
            </subject>
            <effectiveDateTime value="2024-11-29"/>
            <performer>
               <display value="The Central European Lab"/>
            </performer>
            <valueQuantity>
               <value value="12.4"/>
               <unit value="g/dL"/>
               <system value="http://unitsofmeasure.org"/>
               <code value="g/dL"/>
            </valueQuantity>
            <specimen>
               <reference value="urn:uuid:b239c4f3-0fa2-495d-842c-14c6d60548a6"/>
            </specimen>
            <referenceRange>
               <low>
                  <value value="12"/>
                  <system value="http://unitsofmeasure.org"/>
                  <code value="g/dL"/>
               </low>
            </referenceRange>
            <referenceRange>
               <high>
                  <value value="15.5"/>
                  <system value="http://unitsofmeasure.org"/>
                  <code value="g/dL"/>
               </high>
            </referenceRange>
         </Observation>
      </resource>
   </entry>
   <entry>
      <fullUrl value="urn:uuid:2acf6d24-1e25-47ab-b0a2-10cea6c75187"/>
      <resource>
         <Observation>
            <id value="2acf6d24-1e25-47ab-b0a2-10cea6c75187"/>
            <meta>
               <profile value="http://hl7.eu/fhir/laboratory/StructureDefinition/Observation-resultslab-eu-lab"/>
            </meta>
            <status value="final"/>
            <category>
               <coding>
                  <system value="http://terminology.hl7.org/CodeSystem/observation-category"/>
                  <code value="laboratory"/>
               </coding>
            </category>
            <code>
               <coding>
                  <system value="http://loinc.org"/>
                  <code value="4544-3"/>
                  <display value="Hematocrit [Volume Fraction] of Blood by Automated count"/>
               </coding>
               <text value="Hematocrit [Volume Fraction] of Blood by Automated count"/>
            </code>
            <subject>
               <reference value="urn:uuid:310d06a2-ed93-460e-8c00-7bace0f9383a"/>
            </subject>
            <effectiveDateTime value="2024-11-29"/>
            <performer>
               <display value="The Central European Lab"/>
            </performer>
            <valueQuantity>
               <value value="43.7"/>
               <unit value="%"/>
               <system value="http://unitsofmeasure.org"/>
               <code value="%"/>
            </valueQuantity>
            <specimen>
               <reference value="urn:uuid:b239c4f3-0fa2-495d-842c-14c6d60548a6"/>
            </specimen>
            <referenceRange>
               <low>
                  <value value="37"/>
                  <system value="http://unitsofmeasure.org"/>
                  <code value="%"/>
               </low>
            </referenceRange>
            <referenceRange>
               <high>
                  <value value="52"/>
                  <system value="http://unitsofmeasure.org"/>
                  <code value="%"/>
               </high>
            </referenceRange>
         </Observation>
      </resource>
   </entry>
   <entry>
      <fullUrl value="urn:uuid:a1765e28-4e8a-4360-bae2-903dfa5a9352"/>
      <resource>
         <Observation>
            <id value="a1765e28-4e8a-4360-bae2-903dfa5a9352"/>
            <meta>
               <profile value="http://hl7.eu/fhir/laboratory/StructureDefinition/Observation-resultslab-eu-lab"/>
            </meta>
            <status value="final"/>
            <category>
               <coding>
                  <system value="http://terminology.hl7.org/CodeSystem/observation-category"/>
                  <code value="laboratory"/>
               </coding>
            </category>
            <code>
               <coding>
                  <system value="http://loinc.org"/>
                  <code value="787-2"/>
                  <display value="MCV [Entitic volume] by Automated count"/>
               </coding>
               <text value="MCV [Entitic volume] by Automated count"/>
            </code>
            <subject>
               <reference value="urn:uuid:310d06a2-ed93-460e-8c00-7bace0f9383a"/>
            </subject>
            <effectiveDateTime value="2024-11-29"/>
            <performer>
               <display value="The Central European Lab"/>
            </performer>
            <valueQuantity>
               <value value="95.4"/>
               <unit value="fL"/>
               <system value="http://unitsofmeasure.org"/>
               <code value="fL"/>
            </valueQuantity>
            <specimen>
               <reference value="urn:uuid:c77afecb-b029-483e-bda0-52b515f677bd"/>
            </specimen>
            <referenceRange>
               <low>
                  <value value="80"/>
                  <system value="http://unitsofmeasure.org"/>
                  <code value="fL"/>
               </low>
            </referenceRange>
            <referenceRange>
               <high>
                  <value value="105"/>
                  <system value="http://unitsofmeasure.org"/>
                  <code value="fL"/>
               </high>
            </referenceRange>
         </Observation>
      </resource>
   </entry>
   <entry>
      <fullUrl value="urn:uuid:71f7ef3f-bfe0-48aa-a825-67d53bf8da44"/>
      <resource>
         <Observation>
            <id value="71f7ef3f-bfe0-48aa-a825-67d53bf8da44"/>
            <meta>
               <profile value="http://hl7.eu/fhir/laboratory/StructureDefinition/Observation-resultslab-eu-lab"/>
            </meta>
            <status value="final"/>
            <category>
               <coding>
                  <system value="http://terminology.hl7.org/CodeSystem/observation-category"/>
                  <code value="laboratory"/>
               </coding>
            </category>
            <code>
               <coding>
                  <system value="http://loinc.org"/>
                  <code value="785-6"/>
                  <display value="MCH [Entitic mass] by Automated count"/>
               </coding>
               <text value="MCH [Entitic mass] by Automated count"/>
            </code>
            <subject>
               <reference value="urn:uuid:310d06a2-ed93-460e-8c00-7bace0f9383a"/>
            </subject>
            <effectiveDateTime value="2024-11-29"/>
            <performer>
               <display value="The Central European Lab"/>
            </performer>
            <valueQuantity>
               <value value="32.9"/>
               <unit value="pg"/>
               <system value="http://unitsofmeasure.org"/>
               <code value="pg"/>
            </valueQuantity>
            <specimen>
               <reference value="urn:uuid:c77afecb-b029-483e-bda0-52b515f677bd"/>
            </specimen>
            <referenceRange>
               <low>
                  <value value="27"/>
                  <system value="http://unitsofmeasure.org"/>
                  <code value="pg"/>
               </low>
            </referenceRange>
            <referenceRange>
               <high>
                  <value value="34"/>
                  <system value="http://unitsofmeasure.org"/>
                  <code value="pg"/>
               </high>
            </referenceRange>
         </Observation>
      </resource>
   </entry>
   <entry>
      <fullUrl value="urn:uuid:e482cd96-5f8c-45c5-bcf1-6d46092de0da"/>
      <resource>
         <Observation>
            <id value="e482cd96-5f8c-45c5-bcf1-6d46092de0da"/>
            <meta>
               <profile value="http://hl7.eu/fhir/laboratory/StructureDefinition/Observation-resultslab-eu-lab"/>
            </meta>
            <status value="final"/>
            <category>
               <coding>
                  <system value="http://terminology.hl7.org/CodeSystem/observation-category"/>
                  <code value="laboratory"/>
               </coding>
            </category>
            <code>
               <coding>
                  <system value="http://loinc.org"/>
                  <code value="786-4"/>
                  <display value="MCHC [Mass/volume] by Automated count"/>
               </coding>
               <text value="MCHC [Mass/volume] by Automated count"/>
            </code>
            <subject>
               <reference value="urn:uuid:310d06a2-ed93-460e-8c00-7bace0f9383a"/>
            </subject>
            <effectiveDateTime value="2024-11-29"/>
            <performer>
               <display value="The Central European Lab"/>
            </performer>
            <valueQuantity>
               <value value="31.7"/>
               <unit value="g/dL"/>
               <system value="http://unitsofmeasure.org"/>
               <code value="g/dL"/>
            </valueQuantity>
            <specimen>
               <reference value="urn:uuid:c77afecb-b029-483e-bda0-52b515f677bd"/>
            </specimen>
            <referenceRange>
               <low>
                  <value value="31"/>
                  <system value="http://unitsofmeasure.org"/>
                  <code value="g/dL"/>
               </low>
            </referenceRange>
            <referenceRange>
               <high>
                  <value value="35"/>
                  <system value="http://unitsofmeasure.org"/>
                  <code value="g/dL"/>
               </high>
            </referenceRange>
         </Observation>
      </resource>
   </entry>
   <entry>
      <fullUrl value="urn:uuid:fef55d59-0e44-4d7e-b1b0-7b338bc7a1ed"/>
      <resource>
         <Observation>
            <id value="fef55d59-0e44-4d7e-b1b0-7b338bc7a1ed"/>
            <meta>
               <profile value="http://hl7.eu/fhir/laboratory/StructureDefinition/Observation-resultslab-eu-lab"/>
            </meta>
            <status value="final"/>
            <category>
               <coding>
                  <system value="http://terminology.hl7.org/CodeSystem/observation-category"/>
                  <code value="laboratory"/>
               </coding>
            </category>
            <code>
               <coding>
                  <system value="http://loinc.org"/>
                  <code value="788-0"/>
                  <display value="Erythrocyte distribution width [Ratio] by Automated count"/>
               </coding>
               <text value="Erythrocyte distribution width [Ratio] by Automated count"/>
            </code>
            <subject>
               <reference value="urn:uuid:310d06a2-ed93-460e-8c00-7bace0f9383a"/>
            </subject>
            <effectiveDateTime value="2024-11-29"/>
            <performer>
               <display value="The Central European Lab"/>
            </performer>
            <valueQuantity>
               <value value="14"/>
               <unit value="%"/>
               <system value="http://unitsofmeasure.org"/>
               <code value="%"/>
            </valueQuantity>
            <specimen>
               <reference value="urn:uuid:c77afecb-b029-483e-bda0-52b515f677bd"/>
            </specimen>
            <referenceRange>
               <low>
                  <value value="11.5"/>
                  <system value="http://unitsofmeasure.org"/>
                  <code value="%"/>
               </low>
            </referenceRange>
            <referenceRange>
               <high>
                  <value value="16"/>
                  <system value="http://unitsofmeasure.org"/>
                  <code value="%"/>
               </high>
            </referenceRange>
         </Observation>
      </resource>
   </entry>
   <entry>
      <fullUrl value="urn:uuid:b5fed781-444a-42a3-8fe2-00f172de0313"/>
      <resource>
         <Observation>
            <id value="b5fed781-444a-42a3-8fe2-00f172de0313"/>
            <meta>
               <profile value="http://hl7.eu/fhir/laboratory/StructureDefinition/Observation-resultslab-eu-lab"/>
            </meta>
            <status value="final"/>
            <category>
               <coding>
                  <system value="http://terminology.hl7.org/CodeSystem/observation-category"/>
                  <code value="laboratory"/>
               </coding>
            </category>
            <code>
               <coding>
                  <system value="http://loinc.org"/>
                  <code value="777-3"/>
                  <display value="Platelets [#/volume] in Blood by Automated count"/>
               </coding>
               <text value="Platelets [#/volume] in Blood by Automated count"/>
            </code>
            <subject>
               <reference value="urn:uuid:310d06a2-ed93-460e-8c00-7bace0f9383a"/>
            </subject>
            <effectiveDateTime value="2024-11-29"/>
            <performer>
               <display value="The Central European Lab"/>
            </performer>
            <valueQuantity>
               <value value="110.4"/>
               <unit value="10^3/uL"/>
               <system value="http://unitsofmeasure.org"/>
               <code value="10*3/uL"/>
            </valueQuantity>
            <interpretation>
               <coding>
                  <system value="http://terminology.hl7.org/CodeSystem/v3-ObservationInterpretation"/>
                  <code value="L"/>
                  <display value="Low"/>
               </coding>
            </interpretation>
            <specimen>
               <reference value="urn:uuid:b239c4f3-0fa2-495d-842c-14c6d60548a6"/>
            </specimen>
            <referenceRange>
               <low>
                  <value value="150"/>
                  <system value="http://unitsofmeasure.org"/>
                  <code value="10^3/uL"/>
               </low>
            </referenceRange>
            <referenceRange>
               <high>
                  <value value="450"/>
                  <system value="http://unitsofmeasure.org"/>
                  <code value="10^3/uL"/>
               </high>
            </referenceRange>
         </Observation>
      </resource>
   </entry>
   <entry>
      <fullUrl value="urn:uuid:fb45a033-cf0a-41e9-b1a1-b25b422635ae"/>
      <resource>
         <Observation>
            <id value="fb45a033-cf0a-41e9-b1a1-b25b422635ae"/>
            <meta>
               <profile value="http://hl7.eu/fhir/laboratory/StructureDefinition/Observation-resultslab-eu-lab"/>
            </meta>
            <status value="final"/>
            <category>
               <coding>
                  <system value="http://terminology.hl7.org/CodeSystem/observation-category"/>
                  <code value="laboratory"/>
               </coding>
            </category>
            <code>
               <coding>
                  <system value="http://loinc.org"/>
                  <code value="770-8"/>
                  <display value="Neutrophils/100 leukocytes in Blood by Automated count"/>
               </coding>
               <text value="Neutrophils/100 leukocytes in Blood by Automated count"/>
            </code>
            <subject>
               <reference value="urn:uuid:310d06a2-ed93-460e-8c00-7bace0f9383a"/>
            </subject>
            <effectiveDateTime value="2024-11-29"/>
            <performer>
               <display value="The Central European Lab"/>
            </performer>
            <valueQuantity>
               <value value="40.9"/>
               <unit value="%"/>
               <system value="http://unitsofmeasure.org"/>
               <code value="%"/>
            </valueQuantity>
            <specimen>
               <reference value="urn:uuid:b239c4f3-0fa2-495d-842c-14c6d60548a6"/>
            </specimen>
            <referenceRange>
               <low>
                  <value value="40"/>
                  <system value="http://unitsofmeasure.org"/>
                  <code value="%"/>
               </low>
            </referenceRange>
            <referenceRange>
               <high>
                  <value value="74.6"/>
                  <system value="http://unitsofmeasure.org"/>
                  <code value="%"/>
               </high>
            </referenceRange>
         </Observation>
      </resource>
   </entry>
   <entry>
      <fullUrl value="urn:uuid:22b1732d-c8e4-4e32-9de4-cc87f8bed564"/>
      <resource>
         <Observation>
            <id value="22b1732d-c8e4-4e32-9de4-cc87f8bed564"/>
            <meta>
               <profile value="http://hl7.eu/fhir/laboratory/StructureDefinition/Observation-resultslab-eu-lab"/>
            </meta>
            <status value="final"/>
            <category>
               <coding>
                  <system value="http://terminology.hl7.org/CodeSystem/observation-category"/>
                  <code value="laboratory"/>
               </coding>
            </category>
            <code>
               <coding>
                  <system value="http://loinc.org"/>
                  <code value="736-9"/>
                  <display value="Lymphocytes/100 leukocytes in Blood by Automated count"/>
               </coding>
               <text value="Lymphocytes/100 leukocytes in Blood by Automated count"/>
            </code>
            <subject>
               <reference value="urn:uuid:310d06a2-ed93-460e-8c00-7bace0f9383a"/>
            </subject>
            <effectiveDateTime value="2024-11-29"/>
            <performer>
               <display value="The Central European Lab"/>
            </performer>
            <valueQuantity>
               <value value="17.3"/>
               <unit value="%"/>
               <system value="http://unitsofmeasure.org"/>
               <code value="%"/>
            </valueQuantity>
            <interpretation>
               <coding>
                  <system value="http://terminology.hl7.org/CodeSystem/v3-ObservationInterpretation"/>
                  <code value="L"/>
                  <display value="Low"/>
               </coding>
            </interpretation>
            <specimen>
               <reference value="urn:uuid:b239c4f3-0fa2-495d-842c-14c6d60548a6"/>
            </specimen>
            <referenceRange>
               <low>
                  <value value="20"/>
                  <system value="http://unitsofmeasure.org"/>
                  <code value="%"/>
               </low>
            </referenceRange>
            <referenceRange>
               <high>
                  <value value="45"/>
                  <system value="http://unitsofmeasure.org"/>
                  <code value="%"/>
               </high>
            </referenceRange>
         </Observation>
      </resource>
   </entry>
   <entry>
      <fullUrl value="urn:uuid:954f1287-f0b3-4267-be9c-4f910cbd7ae4"/>
      <resource>
         <Observation>
            <id value="954f1287-f0b3-4267-be9c-4f910cbd7ae4"/>
            <meta>
               <profile value="http://hl7.eu/fhir/laboratory/StructureDefinition/Observation-resultslab-eu-lab"/>
            </meta>
            <status value="final"/>
            <category>
               <coding>
                  <system value="http://terminology.hl7.org/CodeSystem/observation-category"/>
                  <code value="laboratory"/>
               </coding>
            </category>
            <code>
               <coding>
                  <system value="http://loinc.org"/>
                  <code value="5905-5"/>
                  <display value="Monocytes/100 leukocytes in Blood by Automated count"/>
               </coding>
               <text value="Monocytes/100 leukocytes in Blood by Automated count"/>
            </code>
            <subject>
               <reference value="urn:uuid:310d06a2-ed93-460e-8c00-7bace0f9383a"/>
            </subject>
            <effectiveDateTime value="2024-11-29"/>
            <performer>
               <display value="The Central European Lab"/>
            </performer>
            <valueQuantity>
               <value value="7"/>
               <unit value="%"/>
               <system value="http://unitsofmeasure.org"/>
               <code value="%"/>
            </valueQuantity>
            <specimen>
               <reference value="urn:uuid:b239c4f3-0fa2-495d-842c-14c6d60548a6"/>
            </specimen>
            <referenceRange>
               <low>
                  <value value="2"/>
                  <system value="http://unitsofmeasure.org"/>
                  <code value="%"/>
               </low>
            </referenceRange>
            <referenceRange>
               <high>
                  <value value="10"/>
                  <system value="http://unitsofmeasure.org"/>
                  <code value="%"/>
               </high>
            </referenceRange>
         </Observation>
      </resource>
   </entry>
   <entry>
      <fullUrl value="urn:uuid:6a4f2784-cc7c-4280-9bbf-3ff75a529026"/>
      <resource>
         <Observation>
            <id value="6a4f2784-cc7c-4280-9bbf-3ff75a529026"/>
            <meta>
               <profile value="http://hl7.eu/fhir/laboratory/StructureDefinition/Observation-resultslab-eu-lab"/>
            </meta>
            <status value="final"/>
            <category>
               <coding>
                  <system value="http://terminology.hl7.org/CodeSystem/observation-category"/>
                  <code value="laboratory"/>
               </coding>
            </category>
            <code>
               <coding>
                  <system value="http://loinc.org"/>
                  <code value="713-8"/>
                  <display value="Eosinophils/100 leukocytes in Blood by Automated count"/>
               </coding>
               <text value="Eosinophils/100 leukocytes in Blood by Automated count"/>
            </code>
            <subject>
               <reference value="urn:uuid:310d06a2-ed93-460e-8c00-7bace0f9383a"/>
            </subject>
            <effectiveDateTime value="2024-11-29"/>
            <performer>
               <display value="The Central European Lab"/>
            </performer>
            <valueQuantity>
               <value value="5.6"/>
               <unit value="%"/>
               <system value="http://unitsofmeasure.org"/>
               <code value="%"/>
            </valueQuantity>
            <specimen>
               <reference value="urn:uuid:b239c4f3-0fa2-495d-842c-14c6d60548a6"/>
            </specimen>
            <referenceRange>
               <low>
                  <value value="0"/>
                  <system value="http://unitsofmeasure.org"/>
                  <code value="%"/>
               </low>
            </referenceRange>
            <referenceRange>
               <high>
                  <value value="7"/>
                  <system value="http://unitsofmeasure.org"/>
                  <code value="%"/>
               </high>
            </referenceRange>
         </Observation>
      </resource>
   </entry>
   <entry>
      <fullUrl value="urn:uuid:df77d817-7b03-47aa-bca4-a64fbf0c2aa4"/>
      <resource>
         <Observation>
            <id value="df77d817-7b03-47aa-bca4-a64fbf0c2aa4"/>
            <meta>
               <profile value="http://hl7.eu/fhir/laboratory/StructureDefinition/Observation-resultslab-eu-lab"/>
            </meta>
            <status value="final"/>
            <category>
               <coding>
                  <system value="http://terminology.hl7.org/CodeSystem/observation-category"/>
                  <code value="laboratory"/>
               </coding>
            </category>
            <code>
               <coding>
                  <system value="http://loinc.org"/>
                  <code value="706-2"/>
                  <display value="Basophils/100 leukocytes in Blood by Automated count"/>
               </coding>
               <text value="Basophils/100 leukocytes in Blood by Automated count"/>
            </code>
            <subject>
               <reference value="urn:uuid:310d06a2-ed93-460e-8c00-7bace0f9383a"/>
            </subject>
            <effectiveDateTime value="2024-11-29"/>
            <performer>
               <display value="The Central European Lab"/>
            </performer>
            <valueQuantity>
               <value value="3.6"/>
               <unit value="%"/>
               <system value="http://unitsofmeasure.org"/>
               <code value="%"/>
            </valueQuantity>
            <interpretation>
               <coding>
                  <system value="http://terminology.hl7.org/CodeSystem/v3-ObservationInterpretation"/>
                  <code value="H"/>
                  <display value="High"/>
               </coding>
            </interpretation>
            <specimen>
               <reference value="urn:uuid:b239c4f3-0fa2-495d-842c-14c6d60548a6"/>
            </specimen>
            <referenceRange>
               <low>
                  <value value="0"/>
                  <system value="http://unitsofmeasure.org"/>
                  <code value="%"/>
               </low>
            </referenceRange>
            <referenceRange>
               <high>
                  <value value="1"/>
                  <system value="http://unitsofmeasure.org"/>
                  <code value="%"/>
               </high>
            </referenceRange>
         </Observation>
      </resource>
   </entry>
   <entry>
      <fullUrl value="urn:uuid:6e41417d-e10e-410b-844f-e0cb38c3dfb9"/>
      <resource>
         <Observation>
            <id value="6e41417d-e10e-410b-844f-e0cb38c3dfb9"/>
            <meta>
               <profile value="http://hl7.eu/fhir/laboratory/StructureDefinition/Observation-resultslab-eu-lab"/>
            </meta>
            <status value="final"/>
            <category>
               <coding>
                  <system value="http://terminology.hl7.org/CodeSystem/observation-category"/>
                  <code value="laboratory"/>
               </coding>
            </category>
            <code>
               <coding>
                  <system value="http://loinc.org"/>
                  <code value="751-8"/>
                  <display value="Neutrophils [#/volume] in Blood by Automated count"/>
               </coding>
               <text value="Neutrophils [#/volume] in Blood by Automated count"/>
            </code>
            <subject>
               <reference value="urn:uuid:310d06a2-ed93-460e-8c00-7bace0f9383a"/>
            </subject>
            <effectiveDateTime value="2024-11-29"/>
            <performer>
               <display value="The Central European Lab"/>
            </performer>
            <valueQuantity>
               <value value="3.4"/>
               <unit value="10^3/uL"/>
               <system value="http://unitsofmeasure.org"/>
               <code value="10*3/uL"/>
            </valueQuantity>
            <specimen>
               <reference value="urn:uuid:b239c4f3-0fa2-495d-842c-14c6d60548a6"/>
            </specimen>
            <referenceRange>
               <low>
                  <value value="2"/>
                  <system value="http://unitsofmeasure.org"/>
                  <code value="10^3/uL"/>
               </low>
            </referenceRange>
            <referenceRange>
               <high>
                  <value value="7.7"/>
                  <system value="http://unitsofmeasure.org"/>
                  <code value="10^3/uL"/>
               </high>
            </referenceRange>
         </Observation>
      </resource>
   </entry>
   <entry>
      <fullUrl value="urn:uuid:bf7de422-e8d4-48c4-b035-f1fb43493cef"/>
      <resource>
         <Observation>
            <id value="bf7de422-e8d4-48c4-b035-f1fb43493cef"/>
            <meta>
               <profile value="http://hl7.eu/fhir/laboratory/StructureDefinition/Observation-resultslab-eu-lab"/>
            </meta>
            <status value="final"/>
            <category>
               <coding>
                  <system value="http://terminology.hl7.org/CodeSystem/observation-category"/>
                  <code value="laboratory"/>
               </coding>
            </category>
            <code>
               <coding>
                  <system value="http://loinc.org"/>
                  <code value="731-0"/>
                  <display value="Lymphocytes [#/volume] in Blood by Automated count"/>
               </coding>
               <text value="Lymphocytes [#/volume] in Blood by Automated count"/>
            </code>
            <subject>
               <reference value="urn:uuid:310d06a2-ed93-460e-8c00-7bace0f9383a"/>
            </subject>
            <effectiveDateTime value="2024-11-29"/>
            <performer>
               <display value="The Central European Lab"/>
            </performer>
            <valueQuantity>
               <value value="1.1"/>
               <unit value="10^3/uL"/>
               <system value="http://unitsofmeasure.org"/>
               <code value="10*3/uL"/>
            </valueQuantity>
            <specimen>
               <reference value="urn:uuid:b239c4f3-0fa2-495d-842c-14c6d60548a6"/>
            </specimen>
            <referenceRange>
               <low>
                  <value value="1"/>
                  <system value="http://unitsofmeasure.org"/>
                  <code value="10^3/uL"/>
               </low>
            </referenceRange>
            <referenceRange>
               <high>
                  <value value="4"/>
                  <system value="http://unitsofmeasure.org"/>
                  <code value="10^3/uL"/>
               </high>
            </referenceRange>
         </Observation>
      </resource>
   </entry>
   <entry>
      <fullUrl value="urn:uuid:7b2019a3-c94f-40b6-996a-4128a688a80d"/>
      <resource>
         <Observation>
            <id value="7b2019a3-c94f-40b6-996a-4128a688a80d"/>
            <meta>
               <profile value="http://hl7.eu/fhir/laboratory/StructureDefinition/Observation-resultslab-eu-lab"/>
            </meta>
            <status value="final"/>
            <category>
               <coding>
                  <system value="http://terminology.hl7.org/CodeSystem/observation-category"/>
                  <code value="laboratory"/>
               </coding>
            </category>
            <code>
               <coding>
                  <system value="http://loinc.org"/>
                  <code value="742-7"/>
                  <display value="Monocytes [#/volume] in Blood by Automated count"/>
               </coding>
               <text value="Monocytes [#/volume] in Blood by Automated count"/>
            </code>
            <subject>
               <reference value="urn:uuid:310d06a2-ed93-460e-8c00-7bace0f9383a"/>
            </subject>
            <effectiveDateTime value="2024-11-29"/>
            <performer>
               <display value="The Central European Lab"/>
            </performer>
            <valueQuantity>
               <value value="1"/>
               <unit value="10^3/uL"/>
               <system value="http://unitsofmeasure.org"/>
               <code value="10*3/uL"/>
            </valueQuantity>
            <interpretation>
               <coding>
                  <system value="http://terminology.hl7.org/CodeSystem/v3-ObservationInterpretation"/>
                  <code value="H"/>
                  <display value="High"/>
               </coding>
            </interpretation>
            <specimen>
               <reference value="urn:uuid:b239c4f3-0fa2-495d-842c-14c6d60548a6"/>
            </specimen>
            <referenceRange>
               <low>
                  <value value="0.7"/>
                  <system value="http://unitsofmeasure.org"/>
                  <code value="10^3/uL"/>
               </low>
            </referenceRange>
            <referenceRange>
               <high>
                  <value value="0.9"/>
                  <system value="http://unitsofmeasure.org"/>
                  <code value="10^3/uL"/>
               </high>
            </referenceRange>
         </Observation>
      </resource>
   </entry>
   <entry>
      <fullUrl value="urn:uuid:e002e3bf-51ac-4ef5-bae6-45c6bb4c12f6"/>
      <resource>
         <Observation>
            <id value="e002e3bf-51ac-4ef5-bae6-45c6bb4c12f6"/>
            <meta>
               <profile value="http://hl7.eu/fhir/laboratory/StructureDefinition/Observation-resultslab-eu-lab"/>
            </meta>
            <status value="final"/>
            <category>
               <coding>
                  <system value="http://terminology.hl7.org/CodeSystem/observation-category"/>
                  <code value="laboratory"/>
               </coding>
            </category>
            <code>
               <coding>
                  <system value="http://loinc.org"/>
                  <code value="711-2"/>
                  <display value="Eosinophils [#/volume] in Blood by Automated count"/>
               </coding>
               <text value="Eosinophils [#/volume] in Blood by Automated count"/>
            </code>
            <subject>
               <reference value="urn:uuid:310d06a2-ed93-460e-8c00-7bace0f9383a"/>
            </subject>
            <effectiveDateTime value="2024-11-29"/>
            <performer>
               <display value="The Central European Lab"/>
            </performer>
            <valueQuantity>
               <value value="0.3"/>
               <unit value="10^3/uL"/>
               <system value="http://unitsofmeasure.org"/>
               <code value="10*3/uL"/>
            </valueQuantity>
            <specimen>
               <reference value="urn:uuid:b239c4f3-0fa2-495d-842c-14c6d60548a6"/>
            </specimen>
            <referenceRange>
               <low>
                  <value value="0.1"/>
                  <system value="http://unitsofmeasure.org"/>
                  <code value="10^3/uL"/>
               </low>
            </referenceRange>
            <referenceRange>
               <high>
                  <value value="0.5"/>
                  <system value="http://unitsofmeasure.org"/>
                  <code value="10^3/uL"/>
               </high>
            </referenceRange>
         </Observation>
      </resource>
   </entry>
   <entry>
      <fullUrl value="urn:uuid:e3519c82-d942-46e8-90af-e6afe72a88f1"/>
      <resource>
         <Observation>
            <id value="e3519c82-d942-46e8-90af-e6afe72a88f1"/>
            <meta>
               <profile value="http://hl7.eu/fhir/laboratory/StructureDefinition/Observation-resultslab-eu-lab"/>
            </meta>
            <status value="final"/>
            <category>
               <coding>
                  <system value="http://terminology.hl7.org/CodeSystem/observation-category"/>
                  <code value="laboratory"/>
               </coding>
            </category>
            <code>
               <coding>
                  <system value="http://loinc.org"/>
                  <code value="704-7"/>
                  <display value="Basophils [#/volume] in Blood by Automated count"/>
               </coding>
               <text value="Basophils [#/volume] in Blood by Automated count"/>
            </code>
            <subject>
               <reference value="urn:uuid:310d06a2-ed93-460e-8c00-7bace0f9383a"/>
            </subject>
            <effectiveDateTime value="2024-11-29"/>
            <performer>
               <display value="The Central European Lab"/>
            </performer>
            <valueQuantity>
               <value value="0.4"/>
               <unit value="10^3/uL"/>
               <system value="http://unitsofmeasure.org"/>
               <code value="10*3/uL"/>
            </valueQuantity>
            <interpretation>
               <coding>
                  <system value="http://terminology.hl7.org/CodeSystem/v3-ObservationInterpretation"/>
                  <code value="H"/>
                  <display value="High"/>
               </coding>
            </interpretation>
            <specimen>
               <reference value="urn:uuid:b239c4f3-0fa2-495d-842c-14c6d60548a6"/>
            </specimen>
            <referenceRange>
               <low>
                  <value value="0.3"/>
                  <system value="http://unitsofmeasure.org"/>
                  <code value="10^3/uL"/>
               </low>
            </referenceRange>
            <referenceRange>
               <high>
                  <value value="0.1"/>
                  <system value="http://unitsofmeasure.org"/>
                  <code value="10^3/uL"/>
               </high>
            </referenceRange>
         </Observation>
      </resource>
   </entry>
   <entry>
      <fullUrl value="urn:uuid:17d5278c-9ffd-4828-8200-ec182082befd"/>
      <resource>
         <Observation>
            <id value="17d5278c-9ffd-4828-8200-ec182082befd"/>
            <meta>
               <profile value="http://hl7.eu/fhir/laboratory/StructureDefinition/Observation-resultslab-eu-lab"/>
            </meta>
            <status value="final"/>
            <category>
               <coding>
                  <system value="http://terminology.hl7.org/CodeSystem/observation-category"/>
                  <code value="laboratory"/>
               </coding>
            </category>
            <code>
               <coding>
                  <system value="http://loinc.org"/>
                  <code value="2345-7"/>
                  <display value="Glucose [Mass/volume] in Serum or Plasma"/>
               </coding>
               <text value="Glucose [Mass/volume] in Serum or Plasma"/>
            </code>
            <subject>
               <reference value="urn:uuid:310d06a2-ed93-460e-8c00-7bace0f9383a"/>
            </subject>
            <effectiveDateTime value="2024-11-29"/>
            <performer>
               <display value="The Central European Lab"/>
            </performer>
            <valueQuantity>
               <value value="95.9"/>
               <unit value="mg/dL"/>
               <system value="http://unitsofmeasure.org"/>
               <code value="mg/dL"/>
            </valueQuantity>
            <specimen>
               <reference value="urn:uuid:5db6cb2c-36fa-41c5-af08-6c795fd86ed5"/>
            </specimen>
            <referenceRange>
               <low>
                  <value value="70"/>
                  <system value="http://unitsofmeasure.org"/>
                  <code value="mg/dL"/>
               </low>
            </referenceRange>
            <referenceRange>
               <high>
                  <value value="139"/>
                  <system value="http://unitsofmeasure.org"/>
                  <code value="mg/dL"/>
               </high>
            </referenceRange>
         </Observation>
      </resource>
   </entry>
   <entry>
      <fullUrl value="urn:uuid:cd712d78-7a13-41d7-95f3-a5db4d140a1b"/>
      <resource>
         <Observation>
            <id value="cd712d78-7a13-41d7-95f3-a5db4d140a1b"/>
            <meta>
               <profile value="http://hl7.eu/fhir/laboratory/StructureDefinition/Observation-resultslab-eu-lab"/>
            </meta>
            <status value="final"/>
            <category>
               <coding>
                  <system value="http://terminology.hl7.org/CodeSystem/observation-category"/>
                  <code value="laboratory"/>
               </coding>
            </category>
            <code>
               <coding>
                  <system value="http://loinc.org"/>
                  <code value="3094-0"/>
                  <display value="Urea nitrogen [Mass/volume] in Serum or Plasma"/>
               </coding>
               <text value="Urea nitrogen [Mass/volume] in Serum or Plasma"/>
            </code>
            <subject>
               <reference value="urn:uuid:310d06a2-ed93-460e-8c00-7bace0f9383a"/>
            </subject>
            <effectiveDateTime value="2024-11-29"/>
            <performer>
               <display value="The Central European Lab"/>
            </performer>
            <valueQuantity>
               <value value="7.8"/>
               <unit value="mg/dL"/>
               <system value="http://unitsofmeasure.org"/>
               <code value="mg/dL"/>
            </valueQuantity>
            <specimen>
               <reference value="urn:uuid:5db6cb2c-36fa-41c5-af08-6c795fd86ed5"/>
            </specimen>
            <referenceRange>
               <low>
                  <value value="6"/>
                  <system value="http://unitsofmeasure.org"/>
                  <code value="mg/dL"/>
               </low>
            </referenceRange>
            <referenceRange>
               <high>
                  <value value="20"/>
                  <system value="http://unitsofmeasure.org"/>
                  <code value="mg/dL"/>
               </high>
            </referenceRange>
         </Observation>
      </resource>
   </entry>
   <entry>
      <fullUrl value="urn:uuid:b20b813a-1d10-4aa5-b387-c613281c860f"/>
      <resource>
         <Observation>
            <id value="b20b813a-1d10-4aa5-b387-c613281c860f"/>
            <meta>
               <profile value="http://hl7.eu/fhir/laboratory/StructureDefinition/Observation-resultslab-eu-lab"/>
            </meta>
            <status value="final"/>
            <category>
               <coding>
                  <system value="http://terminology.hl7.org/CodeSystem/observation-category"/>
                  <code value="laboratory"/>
               </coding>
            </category>
            <code>
               <coding>
                  <system value="http://loinc.org"/>
                  <code value="2160-0"/>
                  <display value="Creatinine [Mass/volume] in Serum or Plasma"/>
               </coding>
               <text value="Creatinine [Mass/volume] in Serum or Plasma"/>
            </code>
            <subject>
               <reference value="urn:uuid:310d06a2-ed93-460e-8c00-7bace0f9383a"/>
            </subject>
            <effectiveDateTime value="2024-11-29"/>
            <performer>
               <display value="The Central European Lab"/>
            </performer>
            <valueQuantity>
               <value value="2.5"/>
               <unit value="mg/dL"/>
               <system value="http://unitsofmeasure.org"/>
               <code value="mg/dL"/>
            </valueQuantity>
            <interpretation>
               <coding>
                  <system value="http://terminology.hl7.org/CodeSystem/v3-ObservationInterpretation"/>
                  <code value="H"/>
                  <display value="High"/>
               </coding>
            </interpretation>
            <specimen>
               <reference value="urn:uuid:5db6cb2c-36fa-41c5-af08-6c795fd86ed5"/>
            </specimen>
            <referenceRange>
               <low>
                  <value value="0.6"/>
                  <system value="http://unitsofmeasure.org"/>
                  <code value="mg/dL"/>
               </low>
            </referenceRange>
            <referenceRange>
               <high>
                  <value value="1.1"/>
                  <system value="http://unitsofmeasure.org"/>
                  <code value="mg/dL"/>
               </high>
            </referenceRange>
         </Observation>
      </resource>
   </entry>
   <entry>
      <fullUrl value="urn:uuid:0681f0b5-a062-46c5-bdd4-fab7af1deb14"/>
      <resource>
         <Observation>
            <id value="0681f0b5-a062-46c5-bdd4-fab7af1deb14"/>
            <meta>
               <profile value="http://hl7.eu/fhir/laboratory/StructureDefinition/Observation-resultslab-eu-lab"/>
            </meta>
            <status value="final"/>
            <category>
               <coding>
                  <system value="http://terminology.hl7.org/CodeSystem/observation-category"/>
                  <code value="laboratory"/>
               </coding>
            </category>
            <code>
               <coding>
                  <system value="http://loinc.org"/>
                  <code value="17861-6"/>
                  <display value="Calcium [Mass/volume] in Serum or Plasma"/>
               </coding>
               <text value="Calcium [Mass/volume] in Serum or Plasma"/>
            </code>
            <subject>
               <reference value="urn:uuid:310d06a2-ed93-460e-8c00-7bace0f9383a"/>
            </subject>
            <effectiveDateTime value="2024-11-29"/>
            <performer>
               <display value="The Central European Lab"/>
            </performer>
            <valueQuantity>
               <value value="10.1"/>
               <unit value="mg/dL"/>
               <system value="http://unitsofmeasure.org"/>
               <code value="mg/dL"/>
            </valueQuantity>
            <specimen>
               <reference value="urn:uuid:5db6cb2c-36fa-41c5-af08-6c795fd86ed5"/>
            </specimen>
            <referenceRange>
               <low>
                  <value value="8.5"/>
                  <system value="http://unitsofmeasure.org"/>
                  <code value="mg/dL"/>
               </low>
            </referenceRange>
            <referenceRange>
               <high>
                  <value value="10.4"/>
                  <system value="http://unitsofmeasure.org"/>
                  <code value="mg/dL"/>
               </high>
            </referenceRange>
         </Observation>
      </resource>
   </entry>
   <entry>
      <fullUrl value="urn:uuid:bca09beb-dcef-4c02-b6dc-59c5468cea8a"/>
      <resource>
         <Observation>
            <id value="bca09beb-dcef-4c02-b6dc-59c5468cea8a"/>
            <meta>
               <profile value="http://hl7.eu/fhir/laboratory/StructureDefinition/Observation-resultslab-eu-lab"/>
            </meta>
            <status value="final"/>
            <category>
               <coding>
                  <system value="http://terminology.hl7.org/CodeSystem/observation-category"/>
                  <code value="laboratory"/>
               </coding>
            </category>
            <code>
               <coding>
                  <system value="http://loinc.org"/>
                  <code value="2951-2"/>
                  <display value="Sodium [Moles/volume] in Serum or Plasma"/>
               </coding>
               <text value="Sodium [Moles/volume] in Serum or Plasma"/>
            </code>
            <subject>
               <reference value="urn:uuid:310d06a2-ed93-460e-8c00-7bace0f9383a"/>
            </subject>
            <effectiveDateTime value="2024-11-29"/>
            <performer>
               <display value="The Central European Lab"/>
            </performer>
            <valueQuantity>
               <value value="140"/>
               <unit value="mmol/L"/>
               <system value="http://unitsofmeasure.org"/>
               <code value="mmol/L"/>
            </valueQuantity>
            <specimen>
               <reference value="urn:uuid:5db6cb2c-36fa-41c5-af08-6c795fd86ed5"/>
            </specimen>
            <referenceRange>
               <low>
                  <value value="135"/>
                  <system value="http://unitsofmeasure.org"/>
                  <code value="mmol/L"/>
               </low>
            </referenceRange>
            <referenceRange>
               <high>
                  <value value="145"/>
                  <system value="http://unitsofmeasure.org"/>
                  <code value="mmol/L"/>
               </high>
            </referenceRange>
         </Observation>
      </resource>
   </entry>
   <entry>
      <fullUrl value="urn:uuid:7f4336ad-fb42-4a40-b749-b98f0699ec71"/>
      <resource>
         <Observation>
            <id value="7f4336ad-fb42-4a40-b749-b98f0699ec71"/>
            <meta>
               <profile value="http://hl7.eu/fhir/laboratory/StructureDefinition/Observation-resultslab-eu-lab"/>
            </meta>
            <status value="final"/>
            <category>
               <coding>
                  <system value="http://terminology.hl7.org/CodeSystem/observation-category"/>
                  <code value="laboratory"/>
               </coding>
            </category>
            <code>
               <coding>
                  <system value="http://loinc.org"/>
                  <code value="2823-3"/>
                  <display value="Potassium [Moles/volume] in Serum or Plasma"/>
               </coding>
               <text value="Potassium [Moles/volume] in Serum or Plasma"/>
            </code>
            <subject>
               <reference value="urn:uuid:310d06a2-ed93-460e-8c00-7bace0f9383a"/>
            </subject>
            <effectiveDateTime value="2024-11-29"/>
            <performer>
               <display value="The Central European Lab"/>
            </performer>
            <valueQuantity>
               <value value="5"/>
               <unit value="mmol/L"/>
               <system value="http://unitsofmeasure.org"/>
               <code value="mmol/L"/>
            </valueQuantity>
            <specimen>
               <reference value="urn:uuid:5db6cb2c-36fa-41c5-af08-6c795fd86ed5"/>
            </specimen>
            <referenceRange>
               <low>
                  <value value="3.5"/>
                  <system value="http://unitsofmeasure.org"/>
                  <code value="mmol/L"/>
               </low>
            </referenceRange>
            <referenceRange>
               <high>
                  <value value="5.3"/>
                  <system value="http://unitsofmeasure.org"/>
                  <code value="mmol/L"/>
               </high>
            </referenceRange>
         </Observation>
      </resource>
   </entry>
   <entry>
      <fullUrl value="urn:uuid:d22121b7-632b-483c-be52-aba2dc733902"/>
      <resource>
         <Observation>
            <id value="d22121b7-632b-483c-be52-aba2dc733902"/>
            <meta>
               <profile value="http://hl7.eu/fhir/laboratory/StructureDefinition/Observation-resultslab-eu-lab"/>
            </meta>
            <status value="final"/>
            <category>
               <coding>
                  <system value="http://terminology.hl7.org/CodeSystem/observation-category"/>
                  <code value="laboratory"/>
               </coding>
            </category>
            <code>
               <coding>
                  <system value="http://loinc.org"/>
                  <code value="2075-0"/>
                  <display value="Chloride [Moles/volume] in Serum or Plasma"/>
               </coding>
               <text value="Chloride [Moles/volume] in Serum or Plasma"/>
            </code>
            <subject>
               <reference value="urn:uuid:310d06a2-ed93-460e-8c00-7bace0f9383a"/>
            </subject>
            <effectiveDateTime value="2024-11-29"/>
            <performer>
               <display value="The Central European Lab"/>
            </performer>
            <valueQuantity>
               <value value="103"/>
               <unit value="mmol/L"/>
               <system value="http://unitsofmeasure.org"/>
               <code value="mmol/L"/>
            </valueQuantity>
            <specimen>
               <reference value="urn:uuid:5db6cb2c-36fa-41c5-af08-6c795fd86ed5"/>
            </specimen>
            <referenceRange>
               <low>
                  <value value="98"/>
                  <system value="http://unitsofmeasure.org"/>
                  <code value="mmol/L"/>
               </low>
            </referenceRange>
            <referenceRange>
               <high>
                  <value value="107"/>
                  <system value="http://unitsofmeasure.org"/>
                  <code value="mmol/L"/>
               </high>
            </referenceRange>
         </Observation>
      </resource>
   </entry>
   <entry>
      <fullUrl value="urn:uuid:85d428ba-7288-4449-a3a0-3d47435718d0"/>
      <resource>
         <Observation>
            <id value="85d428ba-7288-4449-a3a0-3d47435718d0"/>
            <meta>
               <profile value="http://hl7.eu/fhir/laboratory/StructureDefinition/Observation-resultslab-eu-lab"/>
            </meta>
            <status value="final"/>
            <category>
               <coding>
                  <system value="http://terminology.hl7.org/CodeSystem/observation-category"/>
                  <code value="laboratory"/>
               </coding>
            </category>
            <code>
               <coding>
                  <system value="http://loinc.org"/>
                  <code value="2028-9"/>
                  <display value="Carbon dioxide, total [Moles/volume] in Serum or Plasma"/>
               </coding>
               <text value="Carbon dioxide, total [Moles/volume] in Serum or Plasma"/>
            </code>
            <subject>
               <reference value="urn:uuid:310d06a2-ed93-460e-8c00-7bace0f9383a"/>
            </subject>
            <effectiveDateTime value="2024-11-29"/>
            <performer>
               <display value="The Central European Lab"/>
            </performer>
            <valueQuantity>
               <value value="25.4"/>
               <unit value="mmol/L"/>
               <system value="http://unitsofmeasure.org"/>
               <code value="mmol/L"/>
            </valueQuantity>
            <specimen>
               <reference value="urn:uuid:5db6cb2c-36fa-41c5-af08-6c795fd86ed5"/>
            </specimen>
            <referenceRange>
               <low>
                  <value value="22"/>
                  <system value="http://unitsofmeasure.org"/>
                  <code value="mmol/L"/>
               </low>
            </referenceRange>
            <referenceRange>
               <high>
                  <value value="29"/>
                  <system value="http://unitsofmeasure.org"/>
                  <code value="mmol/L"/>
               </high>
            </referenceRange>
         </Observation>
      </resource>
   </entry>
   <entry>
      <fullUrl value="urn:uuid:873cf0ba-a97e-4dad-8b56-85872f911ba6"/>
      <resource>
         <Observation>
            <id value="873cf0ba-a97e-4dad-8b56-85872f911ba6"/>
            <meta>
               <profile value="http://hl7.eu/fhir/laboratory/StructureDefinition/Observation-resultslab-eu-lab"/>
            </meta>
            <status value="final"/>
            <category>
               <coding>
                  <system value="http://terminology.hl7.org/CodeSystem/observation-category"/>
                  <code value="laboratory"/>
               </coding>
            </category>
            <code>
               <coding>
                  <system value="http://loinc.org"/>
                  <code value="2885-2"/>
                  <display value="Protein [Mass/volume] in Serum or Plasma"/>
               </coding>
               <text value="Protein [Mass/volume] in Serum or Plasma"/>
            </code>
            <subject>
               <reference value="urn:uuid:310d06a2-ed93-460e-8c00-7bace0f9383a"/>
            </subject>
            <effectiveDateTime value="2024-11-29"/>
            <performer>
               <display value="The Central European Lab"/>
            </performer>
            <valueQuantity>
               <value value="6.3"/>
               <unit value="g/dL"/>
               <system value="http://unitsofmeasure.org"/>
               <code value="g/dL"/>
            </valueQuantity>
            <specimen>
               <reference value="urn:uuid:5db6cb2c-36fa-41c5-af08-6c795fd86ed5"/>
            </specimen>
            <referenceRange>
               <low>
                  <value value="6"/>
                  <system value="http://unitsofmeasure.org"/>
                  <code value="g/dL"/>
               </low>
            </referenceRange>
            <referenceRange>
               <high>
                  <value value="8.3"/>
                  <system value="http://unitsofmeasure.org"/>
                  <code value="g/dL"/>
               </high>
            </referenceRange>
         </Observation>
      </resource>
   </entry>
   <entry>
      <fullUrl value="urn:uuid:bdd95efc-6f72-45b1-9644-d52037c50ac2"/>
      <resource>
         <Observation>
            <id value="bdd95efc-6f72-45b1-9644-d52037c50ac2"/>
            <meta>
               <profile value="http://hl7.eu/fhir/laboratory/StructureDefinition/Observation-resultslab-eu-lab"/>
            </meta>
            <status value="final"/>
            <category>
               <coding>
                  <system value="http://terminology.hl7.org/CodeSystem/observation-category"/>
                  <code value="laboratory"/>
               </coding>
            </category>
            <code>
               <coding>
                  <system value="http://loinc.org"/>
                  <code value="1751-7"/>
                  <display value="Albumin [Mass/volume] in Serum or Plasma"/>
               </coding>
               <text value="Albumin [Mass/volume] in Serum or Plasma"/>
            </code>
            <subject>
               <reference value="urn:uuid:310d06a2-ed93-460e-8c00-7bace0f9383a"/>
            </subject>
            <effectiveDateTime value="2024-11-29"/>
            <performer>
               <display value="The Central European Lab"/>
            </performer>
            <valueQuantity>
               <value value="3.5"/>
               <unit value="g/dL"/>
               <system value="http://unitsofmeasure.org"/>
               <code value="g/dL"/>
            </valueQuantity>
            <specimen>
               <reference value="urn:uuid:5db6cb2c-36fa-41c5-af08-6c795fd86ed5"/>
            </specimen>
            <referenceRange>
               <low>
                  <value value="3.4"/>
                  <system value="http://unitsofmeasure.org"/>
                  <code value="g/dL"/>
               </low>
            </referenceRange>
            <referenceRange>
               <high>
                  <value value="5"/>
                  <system value="http://unitsofmeasure.org"/>
                  <code value="g/dL"/>
               </high>
            </referenceRange>
         </Observation>
      </resource>
   </entry>
   <entry>
      <fullUrl value="urn:uuid:e973cea1-cf3f-4369-99ac-f4eb637b235d"/>
      <resource>
         <Observation>
            <id value="e973cea1-cf3f-4369-99ac-f4eb637b235d"/>
            <meta>
               <profile value="http://hl7.eu/fhir/laboratory/StructureDefinition/Observation-resultslab-eu-lab"/>
            </meta>
            <status value="final"/>
            <category>
               <coding>
                  <system value="http://terminology.hl7.org/CodeSystem/observation-category"/>
                  <code value="laboratory"/>
               </coding>
            </category>
            <code>
               <coding>
                  <system value="http://loinc.org"/>
                  <code value="1975-2"/>
                  <display value="Bilirubin.total [Mass/volume] in Serum or Plasma"/>
               </coding>
               <text value="Bilirubin.total [Mass/volume] in Serum or Plasma"/>
            </code>
            <subject>
               <reference value="urn:uuid:310d06a2-ed93-460e-8c00-7bace0f9383a"/>
            </subject>
            <effectiveDateTime value="2024-11-29"/>
            <performer>
               <display value="The Central European Lab"/>
            </performer>
            <valueQuantity>
               <value value="12"/>
               <unit value="mg/dL"/>
               <system value="http://unitsofmeasure.org"/>
               <code value="mg/dL"/>
            </valueQuantity>
            <interpretation>
               <coding>
                  <system value="http://terminology.hl7.org/CodeSystem/v3-ObservationInterpretation"/>
                  <code value="H"/>
                  <display value="High"/>
               </coding>
            </interpretation>
            <specimen>
               <reference value="urn:uuid:5db6cb2c-36fa-41c5-af08-6c795fd86ed5"/>
            </specimen>
            <referenceRange>
               <low>
                  <value value="0.3"/>
                  <system value="http://unitsofmeasure.org"/>
                  <code value="mg/dL"/>
               </low>
            </referenceRange>
            <referenceRange>
               <high>
                  <value value="1.2"/>
                  <system value="http://unitsofmeasure.org"/>
                  <code value="mg/dL"/>
               </high>
            </referenceRange>
         </Observation>
      </resource>
   </entry>
   <entry>
      <fullUrl value="urn:uuid:97b6a341-1d12-4e8e-a16e-419866e9dd9c"/>
      <resource>
         <Observation>
            <id value="97b6a341-1d12-4e8e-a16e-419866e9dd9c"/>
            <meta>
               <profile value="http://hl7.eu/fhir/laboratory/StructureDefinition/Observation-resultslab-eu-lab"/>
            </meta>
            <status value="final"/>
            <category>
               <coding>
                  <system value="http://terminology.hl7.org/CodeSystem/observation-category"/>
                  <code value="laboratory"/>
               </coding>
            </category>
            <code>
               <coding>
                  <system value="http://loinc.org"/>
                  <code value="6768-6"/>
                  <display value="Alkaline phosphatase [Enzymatic activity/volume] in Serum or Plasma"/>
               </coding>
               <text value="Alkaline phosphatase [Enzymatic activity/volume] in Serum or Plasma"/>
            </code>
            <subject>
               <reference value="urn:uuid:310d06a2-ed93-460e-8c00-7bace0f9383a"/>
            </subject>
            <effectiveDateTime value="2024-11-29"/>
            <performer>
               <display value="The Central European Lab"/>
            </performer>
            <valueQuantity>
               <value value="81.3"/>
               <unit value="U/L"/>
               <system value="http://unitsofmeasure.org"/>
               <code value="U/L"/>
            </valueQuantity>
            <specimen>
               <reference value="urn:uuid:5db6cb2c-36fa-41c5-af08-6c795fd86ed5"/>
            </specimen>
            <referenceRange>
               <low>
                  <value value="20"/>
                  <system value="http://unitsofmeasure.org"/>
                  <code value="U/L"/>
               </low>
            </referenceRange>
            <referenceRange>
               <high>
                  <value value="130"/>
                  <system value="http://unitsofmeasure.org"/>
                  <code value="U/L"/>
               </high>
            </referenceRange>
         </Observation>
      </resource>
   </entry>
   <entry>
      <fullUrl value="urn:uuid:b148b928-7e93-44bb-bb32-d2ba9bb56fb1"/>
      <resource>
         <Observation>
            <id value="b148b928-7e93-44bb-bb32-d2ba9bb56fb1"/>
            <meta>
               <profile value="http://hl7.eu/fhir/laboratory/StructureDefinition/Observation-resultslab-eu-lab"/>
            </meta>
            <status value="final"/>
            <category>
               <coding>
                  <system value="http://terminology.hl7.org/CodeSystem/observation-category"/>
                  <code value="laboratory"/>
               </coding>
            </category>
            <code>
               <coding>
                  <system value="http://loinc.org"/>
                  <code value="1742-6"/>
                  <display value="Alanine aminotransferase [Enzymatic activity/volume] in Serum or Plasma"/>
               </coding>
               <text value="Alanine aminotransferase [Enzymatic activity/volume] in Serum or Plasma"/>
            </code>
            <subject>
               <reference value="urn:uuid:310d06a2-ed93-460e-8c00-7bace0f9383a"/>
            </subject>
            <effectiveDateTime value="2024-11-29"/>
            <performer>
               <display value="The Central European Lab"/>
            </performer>
            <valueQuantity>
               <value value="28.4"/>
               <unit value="U/L"/>
               <system value="http://unitsofmeasure.org"/>
               <code value="U/L"/>
            </valueQuantity>
            <specimen>
               <reference value="urn:uuid:5db6cb2c-36fa-41c5-af08-6c795fd86ed5"/>
            </specimen>
            <referenceRange>
               <low>
                  <value value="7"/>
                  <system value="http://unitsofmeasure.org"/>
                  <code value="U/L"/>
               </low>
            </referenceRange>
            <referenceRange>
               <high>
                  <value value="33"/>
                  <system value="http://unitsofmeasure.org"/>
                  <code value="U/L"/>
               </high>
            </referenceRange>
         </Observation>
      </resource>
   </entry>
   <entry>
      <fullUrl value="urn:uuid:295fb8c9-836f-4799-9f16-fd222bb154b0"/>
      <resource>
         <Observation>
            <id value="295fb8c9-836f-4799-9f16-fd222bb154b0"/>
            <meta>
               <profile value="http://hl7.eu/fhir/laboratory/StructureDefinition/Observation-resultslab-eu-lab"/>
            </meta>
            <status value="final"/>
            <category>
               <coding>
                  <system value="http://terminology.hl7.org/CodeSystem/observation-category"/>
                  <code value="laboratory"/>
               </coding>
            </category>
            <code>
               <coding>
                  <system value="http://loinc.org"/>
                  <code value="1920-8"/>
                  <display value="Aspartate aminotransferase [Enzymatic activity/volume] in Serum or Plasma"/>
               </coding>
               <text value="Aspartate aminotransferase [Enzymatic activity/volume] in Serum or Plasma"/>
            </code>
            <subject>
               <reference value="urn:uuid:310d06a2-ed93-460e-8c00-7bace0f9383a"/>
            </subject>
            <effectiveDateTime value="2024-11-29"/>
            <performer>
               <display value="The Central European Lab"/>
            </performer>
            <valueQuantity>
               <value value="17.9"/>
               <unit value="U/L"/>
               <system value="http://unitsofmeasure.org"/>
               <code value="U/L"/>
            </valueQuantity>
            <specimen>
               <reference value="urn:uuid:5db6cb2c-36fa-41c5-af08-6c795fd86ed5"/>
            </specimen>
            <referenceRange>
               <low>
                  <value value="10"/>
                  <system value="http://unitsofmeasure.org"/>
                  <code value="U/L"/>
               </low>
            </referenceRange>
            <referenceRange>
               <high>
                  <value value="40"/>
                  <system value="http://unitsofmeasure.org"/>
                  <code value="U/L"/>
               </high>
            </referenceRange>
         </Observation>
      </resource>
   </entry>
   <entry>
      <fullUrl value="urn:uuid:e24012bb-a446-453f-a890-7e93b7d67f36"/>
      <resource>
         <Observation>
            <id value="e24012bb-a446-453f-a890-7e93b7d67f36"/>
            <meta>
               <profile value="http://hl7.eu/fhir/laboratory/StructureDefinition/Observation-resultslab-eu-lab"/>
            </meta>
            <status value="final"/>
            <category>
               <coding>
                  <system value="http://terminology.hl7.org/CodeSystem/observation-category"/>
                  <code value="laboratory"/>
               </coding>
            </category>
            <code>
               <coding>
                  <system value="http://loinc.org"/>
                  <code value="48065-7"/>
                  <display value="Fibrin D-dimer FEU [Mass/volume] in Platelet poor plasma"/>
               </coding>
               <text value="Fibrin D-dimer FEU [Mass/volume] in Platelet poor plasma"/>
            </code>
            <subject>
               <reference value="urn:uuid:310d06a2-ed93-460e-8c00-7bace0f9383a"/>
            </subject>
            <effectiveDateTime value="2024-11-29"/>
            <performer>
               <display value="The Central European Lab"/>
            </performer>
            <valueQuantity>
               <value value="0.2"/>
               <unit value="ug/mL"/>
               <system value="http://unitsofmeasure.org"/>
               <code value="ug/mL"/>
            </valueQuantity>
            <specimen>
               <reference value="urn:uuid:543ef1df-0709-4707-a371-aaa3183310b2"/>
            </specimen>
            <referenceRange>
               <low>
                  <value value="0"/>
                  <system value="http://unitsofmeasure.org"/>
                  <code value="ug/mL"/>
               </low>
            </referenceRange>
            <referenceRange>
               <high>
                  <value value="0.5"/>
                  <system value="http://unitsofmeasure.org"/>
                  <code value="ug/mL"/>
               </high>
            </referenceRange>
         </Observation>
      </resource>
   </entry>
   <entry>
      <fullUrl value="urn:uuid:840800d7-8189-4747-b6ad-3321a27d0d51"/>
      <resource>
         <Observation>
            <id value="840800d7-8189-4747-b6ad-3321a27d0d51"/>
            <meta>
               <profile value="http://hl7.eu/fhir/laboratory/StructureDefinition/Observation-resultslab-eu-lab"/>
            </meta>
            <status value="final"/>
            <category>
               <coding>
                  <system value="http://terminology.hl7.org/CodeSystem/observation-category"/>
                  <code value="laboratory"/>
               </coding>
            </category>
            <code>
               <coding>
                  <system value="http://loinc.org"/>
                  <code value="2276-4"/>
                  <display value="Ferritin [Mass/volume] in Serum or Plasma"/>
               </coding>
               <text value="Ferritin [Mass/volume] in Serum or Plasma"/>
            </code>
            <subject>
               <reference value="urn:uuid:310d06a2-ed93-460e-8c00-7bace0f9383a"/>
            </subject>
            <effectiveDateTime value="2024-11-29"/>
            <performer>
               <display value="The Central European Lab"/>
            </performer>
            <valueQuantity>
               <value value="313"/>
               <unit value="ug/L"/>
               <system value="http://unitsofmeasure.org"/>
               <code value="ug/L"/>
            </valueQuantity>
            <interpretation>
               <coding>
                  <system value="http://terminology.hl7.org/CodeSystem/v3-ObservationInterpretation"/>
                  <code value="H"/>
                  <display value="High"/>
               </coding>
            </interpretation>
            <specimen>
               <reference value="urn:uuid:5db6cb2c-36fa-41c5-af08-6c795fd86ed5"/>
            </specimen>
            <referenceRange>
               <low>
                  <value value="30"/>
                  <system value="http://unitsofmeasure.org"/>
                  <code value="ug/L"/>
               </low>
            </referenceRange>
            <referenceRange>
               <high>
                  <value value="150"/>
                  <system value="http://unitsofmeasure.org"/>
                  <code value="ug/L"/>
               </high>
            </referenceRange>
         </Observation>
      </resource>
   </entry>
   <entry>
      <fullUrl value="urn:uuid:29c72e9f-ba33-4e57-ad22-1b52e0d1e861"/>
      <resource>
         <Observation>
            <id value="29c72e9f-ba33-4e57-ad22-1b52e0d1e861"/>
            <meta>
               <profile value="http://hl7.eu/fhir/laboratory/StructureDefinition/Observation-resultslab-eu-lab"/>
            </meta>
            <status value="final"/>
            <category>
               <coding>
                  <system value="http://terminology.hl7.org/CodeSystem/observation-category"/>
                  <code value="laboratory"/>
               </coding>
            </category>
            <code>
               <coding>
                  <system value="http://loinc.org"/>
                  <code value="89579-7"/>
                  <display value="Troponin I.cardiac [Mass/volume] in Serum or Plasma by High sensitivity method"/>
               </coding>
               <text value="Troponin I.cardiac [Mass/volume] in Serum or Plasma by High sensitivity method"/>
            </code>
            <subject>
               <reference value="urn:uuid:310d06a2-ed93-460e-8c00-7bace0f9383a"/>
            </subject>
            <effectiveDateTime value="2024-11-29"/>
            <performer>
               <display value="The Central European Lab"/>
            </performer>
            <valueQuantity>
               <value value="2.8"/>
               <unit value="pg/mL"/>
               <system value="http://unitsofmeasure.org"/>
               <code value="pg/mL"/>
            </valueQuantity>
            <specimen>
               <reference value="urn:uuid:5db6cb2c-36fa-41c5-af08-6c795fd86ed5"/>
            </specimen>
            <referenceRange>
               <low>
                  <value value="0"/>
                  <system value="http://unitsofmeasure.org"/>
                  <code value="pg/mL"/>
               </low>
            </referenceRange>
            <referenceRange>
               <high>
                  <value value="15"/>
                  <system value="http://unitsofmeasure.org"/>
                  <code value="pg/mL"/>
               </high>
            </referenceRange>
         </Observation>
      </resource>
   </entry>
   <entry>
      <fullUrl value="urn:uuid:9bb94348-6966-4a35-bf02-1ded09fe3d77"/>
      <resource>
         <Observation>
            <id value="9bb94348-6966-4a35-bf02-1ded09fe3d77"/>
            <meta>
               <profile value="http://hl7.eu/fhir/laboratory/StructureDefinition/Observation-resultslab-eu-lab"/>
            </meta>
            <status value="final"/>
            <category>
               <coding>
                  <system value="http://terminology.hl7.org/CodeSystem/observation-category"/>
                  <code value="laboratory"/>
               </coding>
            </category>
            <code>
               <coding>
                  <system value="http://loinc.org"/>
                  <code value="14804-9"/>
                  <display value="Lactate dehydrogenase [Enzymatic activity/volume] in Serum or Plasma by Lactate to pyruvate reaction"/>
               </coding>
               <text value="Lactate dehydrogenase [Enzymatic activity/volume] in Serum or Plasma by Lactate to pyruvate reaction"/>
            </code>
            <subject>
               <reference value="urn:uuid:310d06a2-ed93-460e-8c00-7bace0f9383a"/>
            </subject>
            <effectiveDateTime value="2024-11-29"/>
            <performer>
               <display value="The Central European Lab"/>
            </performer>
            <valueQuantity>
               <value value="221.9"/>
               <unit value="U/L"/>
               <system value="http://unitsofmeasure.org"/>
               <code value="U/L"/>
            </valueQuantity>
            <interpretation>
               <coding>
                  <system value="http://terminology.hl7.org/CodeSystem/v3-ObservationInterpretation"/>
                  <code value="H"/>
                  <display value="High"/>
               </coding>
            </interpretation>
            <specimen>
               <reference value="urn:uuid:5db6cb2c-36fa-41c5-af08-6c795fd86ed5"/>
            </specimen>
            <referenceRange>
               <low>
                  <value value="100"/>
                  <system value="http://unitsofmeasure.org"/>
                  <code value="U/L"/>
               </low>
            </referenceRange>
            <referenceRange>
               <high>
                  <value value="214"/>
                  <system value="http://unitsofmeasure.org"/>
                  <code value="U/L"/>
               </high>
            </referenceRange>
         </Observation>
      </resource>
   </entry>
   <entry>
      <fullUrl value="urn:uuid:71ef5b1a-09a0-4cdd-8bb8-e8f50e22aa4b"/>
      <resource>
         <Observation>
            <id value="71ef5b1a-09a0-4cdd-8bb8-e8f50e22aa4b"/>
            <meta>
               <profile value="http://hl7.eu/fhir/laboratory/StructureDefinition/Observation-resultslab-eu-lab"/>
            </meta>
            <status value="final"/>
            <category>
               <coding>
                  <system value="http://terminology.hl7.org/CodeSystem/observation-category"/>
                  <code value="laboratory"/>
               </coding>
            </category>
            <code>
               <coding>
                  <system value="http://loinc.org"/>
                  <code value="2157-6"/>
                  <display value="Creatine kinase [Enzymatic activity/volume] in Serum or Plasma"/>
               </coding>
               <text value="Creatine kinase [Enzymatic activity/volume] in Serum or Plasma"/>
            </code>
            <subject>
               <reference value="urn:uuid:310d06a2-ed93-460e-8c00-7bace0f9383a"/>
            </subject>
            <effectiveDateTime value="2024-11-29"/>
            <performer>
               <display value="The Central European Lab"/>
            </performer>
            <valueQuantity>
               <value value="52.1"/>
               <unit value="U/L"/>
               <system value="http://unitsofmeasure.org"/>
               <code value="U/L"/>
            </valueQuantity>
            <specimen>
               <reference value="urn:uuid:5db6cb2c-36fa-41c5-af08-6c795fd86ed5"/>
            </specimen>
            <referenceRange>
               <low>
                  <value value="30"/>
                  <system value="http://unitsofmeasure.org"/>
                  <code value="U/L"/>
               </low>
            </referenceRange>
            <referenceRange>
               <high>
                  <value value="170"/>
                  <system value="http://unitsofmeasure.org"/>
                  <code value="U/L"/>
               </high>
            </referenceRange>
         </Observation>
      </resource>
   </entry>
   <entry>
      <fullUrl value="urn:uuid:1b3d8c0a-65b3-4213-bc8f-b2d8b8db6686"/>
      <resource>
         <Observation>
            <id value="1b3d8c0a-65b3-4213-bc8f-b2d8b8db6686"/>
            <meta>
               <profile value="http://hl7.eu/fhir/laboratory/StructureDefinition/Observation-resultslab-eu-lab"/>
            </meta>
            <status value="final"/>
            <category>
               <coding>
                  <system value="http://terminology.hl7.org/CodeSystem/observation-category"/>
                  <code value="laboratory"/>
               </coding>
            </category>
            <code>
               <coding>
                  <system value="http://loinc.org"/>
                  <code value="1988-5"/>
                  <display value="C reactive protein [Mass/volume] in Serum or Plasma"/>
               </coding>
               <text value="C reactive protein [Mass/volume] in Serum or Plasma"/>
            </code>
            <subject>
               <reference value="urn:uuid:310d06a2-ed93-460e-8c00-7bace0f9383a"/>
            </subject>
            <effectiveDateTime value="2024-11-29"/>
            <performer>
               <display value="The Central European Lab"/>
            </performer>
            <valueQuantity>
               <value value="8.1"/>
               <unit value="mg/L"/>
               <system value="http://unitsofmeasure.org"/>
               <code value="mg/L"/>
            </valueQuantity>
            <specimen>
               <reference value="urn:uuid:5db6cb2c-36fa-41c5-af08-6c795fd86ed5"/>
            </specimen>
            <referenceRange>
               <low>
                  <value value="0"/>
                  <system value="http://unitsofmeasure.org"/>
                  <code value="mg/L"/>
               </low>
            </referenceRange>
            <referenceRange>
               <high>
                  <value value="10"/>
                  <system value="http://unitsofmeasure.org"/>
                  <code value="mg/L"/>
               </high>
            </referenceRange>
         </Observation>
      </resource>
   </entry>
   <entry>
      <fullUrl value="urn:uuid:88d25893-cc42-4f61-85ba-9dfb2a1413b3"/>
      <resource>
         <Observation>
            <id value="88d25893-cc42-4f61-85ba-9dfb2a1413b3"/>
            <meta>
               <profile value="http://hl7.eu/fhir/laboratory/StructureDefinition/Observation-resultslab-eu-lab"/>
            </meta>
            <status value="final"/>
            <category>
               <coding>
                  <system value="http://terminology.hl7.org/CodeSystem/observation-category"/>
                  <code value="laboratory"/>
               </coding>
            </category>
            <code>
               <coding>
                  <system value="http://loinc.org"/>
                  <code value="5902-2"/>
                  <display value="Prothrombin time (PT)"/>
               </coding>
               <text value="Prothrombin time (PT)"/>
            </code>
            <subject>
               <reference value="urn:uuid:310d06a2-ed93-460e-8c00-7bace0f9383a"/>
            </subject>
            <effectiveDateTime value="2024-11-29"/>
            <performer>
               <display value="The Central European Lab"/>
            </performer>
            <valueQuantity>
               <value value="11.8"/>
               <unit value="sec"/>
               <system value="http://unitsofmeasure.org"/>
               <code value="s"/>
            </valueQuantity>
            <specimen>
               <reference value="urn:uuid:543ef1df-0709-4707-a371-aaa3183310b2"/>
            </specimen>
            <referenceRange>
               <low>
                  <value value="11"/>
                  <system value="http://unitsofmeasure.org"/>
                  <code value="sec"/>
               </low>
            </referenceRange>
            <referenceRange>
               <high>
                  <value value="14"/>
                  <system value="http://unitsofmeasure.org"/>
                  <code value="sec"/>
               </high>
            </referenceRange>
         </Observation>
      </resource>
   </entry>
   <entry>
      <fullUrl value="urn:uuid:1a68d735-7b1a-461c-af97-092b4edf6090"/>
      <resource>
         <Observation>
            <id value="1a68d735-7b1a-461c-af97-092b4edf6090"/>
            <meta>
               <profile value="http://hl7.eu/fhir/laboratory/StructureDefinition/Observation-resultslab-eu-lab"/>
            </meta>
            <status value="final"/>
            <category>
               <coding>
                  <system value="http://terminology.hl7.org/CodeSystem/observation-category"/>
                  <code value="laboratory"/>
               </coding>
            </category>
            <code>
               <coding>
                  <system value="http://loinc.org"/>
                  <code value="6301-6"/>
                  <display value="INR in Platelet poor plasma by Coagulation assay"/>
               </coding>
               <text value="INR in Platelet poor plasma by Coagulation assay"/>
            </code>
            <subject>
               <reference value="urn:uuid:310d06a2-ed93-460e-8c00-7bace0f9383a"/>
            </subject>
            <effectiveDateTime value="2024-11-29"/>
            <performer>
               <display value="The Central European Lab"/>
            </performer>
            <valueQuantity>
               <value value="1.3"/>
               <unit value="{INR}"/>
               <system value="http://unitsofmeasure.org"/>
               <code value="{INR}"/>
            </valueQuantity>
            <specimen>
               <reference value="urn:uuid:543ef1df-0709-4707-a371-aaa3183310b2"/>
            </specimen>
            <referenceRange>
               <low>
                  <value value="0.9"/>
                  <system value="http://unitsofmeasure.org"/>
                  <code value="{INR}"/>
               </low>
            </referenceRange>
            <referenceRange>
               <high>
                  <value value="2"/>
                  <system value="http://unitsofmeasure.org"/>
                  <code value="{INR}"/>
               </high>
            </referenceRange>
         </Observation>
      </resource>
   </entry>
   <entry>
      <fullUrl value="urn:uuid:d8b21a0c-1713-418f-a921-edfb209c1b59"/>
      <resource>
         <Observation>
            <id value="d8b21a0c-1713-418f-a921-edfb209c1b59"/>
            <meta>
               <profile value="http://hl7.eu/fhir/laboratory/StructureDefinition/Observation-resultslab-eu-lab"/>
            </meta>
            <status value="final"/>
            <category>
               <coding>
                  <system value="http://terminology.hl7.org/CodeSystem/observation-category"/>
                  <code value="laboratory"/>
               </coding>
            </category>
            <code>
               <coding>
                  <system value="http://loinc.org"/>
                  <code value="33959-8"/>
                  <display value="Procalcitonin [Mass/volume] in Serum or Plasma"/>
               </coding>
               <text value="Procalcitonin [Mass/volume] in Serum or Plasma"/>
            </code>
            <subject>
               <reference value="urn:uuid:310d06a2-ed93-460e-8c00-7bace0f9383a"/>
            </subject>
            <effectiveDateTime value="2024-11-29"/>
            <performer>
               <display value="The Central European Lab"/>
            </performer>
            <valueQuantity>
               <value value="0.1"/>
               <unit value="ng/mL"/>
               <system value="http://unitsofmeasure.org"/>
               <code value="ng/mL"/>
            </valueQuantity>
            <specimen>
               <reference value="urn:uuid:5db6cb2c-36fa-41c5-af08-6c795fd86ed5"/>
            </specimen>
            <referenceRange>
               <low>
                  <value value="0"/>
                  <system value="http://unitsofmeasure.org"/>
                  <code value="ng/mL"/>
               </low>
            </referenceRange>
            <referenceRange>
               <high>
                  <value value="0.5"/>
                  <system value="http://unitsofmeasure.org"/>
                  <code value="ng/mL"/>
               </high>
            </referenceRange>
         </Observation>
      </resource>
   </entry>
</Bundle>
