{
  "resourceType": "Bundle",
  "id": "Instance-Bundle-544ff569-cbb7-410c-95de-2f6ab3d40979",
  "meta": {
    "profile": [
      "http://hl7.eu/fhir/laboratory/StructureDefinition/Bundle-eu-lab"
    ]
  },
  "identifier": {
    "assigner": {
      "display": "HL7 Europe"
    },
    "system": "urn:oid:2.16.840.1.113883.2.51.999",
    "value": "b0911b72-8227-4902-94d0-161b417fb9cc"
  },
  "entry": [
    {
      "fullUrl": "urn:uuid:9b731670-f66c-4334-a24e-853ed273e678",
      "resource": {
        "resourceType": "Composition",
        "id": "9b731670-f66c-4334-a24e-853ed273e678",
        "meta": {
          "profile": [
            "http://hl7.eu/fhir/laboratory/StructureDefinition/Composition-eu-lab"
          ]
        },
        "identifier": {
          "assigner": {
            "display": "HL7 Europe"
          },
          "system": "urn:oid:2.16.840.1.113883.2.51.999",
          "value": "3cb06cf4-32c8-4408-b34e-4b68c30c343e"
        },
        "author": [
          {
            "reference": "urn:uuid:191aa8fb-cba6-4ec0-907f-d67f3228cd8d"
          }
        ],
        "category": [
          {
            "coding": [
              {
                "code": "26436-6",
                "system": "http://loinc.org",
                "display": "Laboratory studies (set)"
              }
            ]
          }
        ],
        "type": {
          "text": "Laboratory Report"
        },
        "section": [
          {
            "code": {
              "coding": [
                {
                  "code": "26436-6",
                  "system": "http://loinc.org",
                  "display": "Laboratory studies (set)"
                }
              ],
              "text": "Laboratory studies"
            },
            "section": [
              {
                "code": {
                  "coding": [
                    {
                      "code": "18719-5",
                      "system": "http://loinc.org",
                      "display": "Chemistry studies (set)"
                    }
                  ],
                  "text": "Chemistry"
                },
                "entry": [
                  {
                    "reference": "urn:uuid:9ab07d0d-847e-4713-b1a4-0445cda824a0"
                  },
                  {
                    "reference": "urn:uuid:078bd33e-6405-4414-94e4-1491d9bef664"
                  },
                  {
                    "reference": "urn:uuid:59dfb4ab-6b1e-436c-9efb-bbfa0336f1bc"
                  },
                  {
                    "reference": "urn:uuid:35073574-f1fb-49ba-b029-4c90cdffb16a"
                  },
                  {
                    "reference": "urn:uuid:be5873cb-33fa-422f-99a4-e6404b92c6ac"
                  },
                  {
                    "reference": "urn:uuid:22a76c9a-87bf-4c7c-bdfa-4dcc23d42935"
                  },
                  {
                    "reference": "urn:uuid:4055431b-f10b-4fab-9f05-e19c498986b2"
                  },
                  {
                    "reference": "urn:uuid:7d2fd19f-8d59-47f8-88ac-389ff6a91323"
                  },
                  {
                    "reference": "urn:uuid:9bb3253d-96bb-44bf-9fc1-6e55136c18f5"
                  },
                  {
                    "reference": "urn:uuid:dadfdc36-7689-4dca-a454-00b016553fa5"
                  },
                  {
                    "reference": "urn:uuid:5a0bd2bb-0b2a-43a9-a487-53c5b1ce25f2"
                  },
                  {
                    "reference": "urn:uuid:95d932c6-a0d9-451f-ab44-56df03b054db"
                  },
                  {
                    "reference": "urn:uuid:763fe913-1828-4f42-a0a9-fb110b86af1b"
                  },
                  {
                    "reference": "urn:uuid:a954473d-d182-4b6b-a859-07fb1a9d2b35"
                  },
                  {
                    "reference": "urn:uuid:0027ea11-2a99-4d74-93a6-51401379fe6a"
                  },
                  {
                    "reference": "urn:uuid:a19bd339-1a65-45c7-a637-469082a38d4f"
                  },
                  {
                    "reference": "urn:uuid:81bbe39e-0c09-4537-832f-2c1c0dbce03b"
                  },
                  {
                    "reference": "urn:uuid:59f37241-8dc6-4ff2-8c77-38a191ffbb5a"
                  },
                  {
                    "reference": "urn:uuid:add8c11a-4f64-4ebf-9125-2ccfa15d8666"
                  }
                ],
                "text": {
                  "status": "generated",
                  "div": "<div xmlns=\"http://www.w3.org/1999/xhtml\"><h3 id=\"section-1\">Chemistry</h3><table class=\"hl7__eu__lab__report\"><thead><tr><th>Test</th><th>29 Nov 2024</th><th>Reference Range</th><th>Unit</th></tr></thead><tbody><tr><td>Glucose [Mass/volume] in Blood</td><td>78.4</td><td>70 - 140</td><td>mg/dL</td></tr><tr><td>Urea nitrogen [Mass/volume] in Blood</td><td>7.3</td><td>7 - 20</td><td>mg/dL</td></tr><tr><td>Creatinine [Mass/volume] in Blood</td><td><strong>2.9 H</strong></td><td>0.6 - 1.3</td><td>mg/dL</td></tr><tr><td>Calcium [Mass/volume] in Blood</td><td>9.0</td><td>8.5 - 10.5</td><td>mg/dL</td></tr><tr><td>Sodium [Moles/volume] in Blood</td><td>141.8</td><td>135 - 145</td><td>mmol/L</td></tr><tr><td>Potassium [Moles/volume] in Blood</td><td>5.1</td><td>3.5 - 5.3</td><td>mmol/L</td></tr><tr><td>Chloride [Moles/volume] in Blood</td><td>102.0</td><td>98 - 108</td><td>mmol/L</td></tr><tr><td>Carbon dioxide, total [Moles/volume] in Blood</td><td>26.0</td><td>22 - 29</td><td>mmol/L</td></tr><tr><td>Protein [Mass/volume] in Serum or Plasma</td><td>77.3</td><td>61 - 79</td><td>g/dL</td></tr><tr><td>Albumin [Mass/volume] in Serum or Plasma</td><td>4.9</td><td>3.5 - 5.5</td><td>g/dL</td></tr><tr><td>Globulin [Mass/volume] in Serum by calculation</td><td>3.2</td><td>2 - 3.9</td><td>g/L</td></tr><tr><td>Bilirubin.total [Mass/volume] in Serum or Plasma</td><td>1.1</td><td>0.3 - 1.2</td><td>mg/dL</td></tr><tr><td>Alkaline phosphatase [Enzymatic activity/volume] in Serum or Plasma</td><td>38.2</td><td>32 - 150</td><td>U/L</td></tr><tr><td>Alanine aminotransferase [Enzymatic activity/volume] in Serum or Plasma</td><td>20.3</td><td>7 - 60</td><td>U/L</td></tr><tr><td>Aspartate aminotransferase [Enzymatic activity/volume] in Serum or Plasma</td><td>37.4</td><td>10 - 40</td><td>U/L</td></tr><tr><td>Cholesterol [Mass/volume] in Serum or Plasma</td><td><strong>209.3 H</strong></td><td>0 - 200</td><td>mg/dL</td></tr><tr><td>Triglyceride [Mass/volume] in Serum or Plasma</td><td><strong>190.1 H</strong></td><td>50 - 150</td><td>mg/dL</td></tr><tr><td>Cholesterol in LDL [Mass/volume] in Serum or Plasma by Direct assay</td><td>136.3</td><td>0 - 159</td><td>mg/dL</td></tr><tr><td>Cholesterol in HDL [Mass/volume] in Serum or Plasma</td><td>67.8</td><td>50 - 100</td><td>mg/dL</td></tr></tbody></table></div>"
                },
                "title": "Chemistry"
              }
            ],
            "title": "Laboratory Report"
          }
        ],
        "status": "final",
        "subject": {
          "reference": "urn:uuid:87412de1-a8eb-4e49-ac49-b3606214d607"
        },
        "date": "2024-11-30T13:32:49Z",
        "title": "Laboratory Report",
        "confidentiality": "N"
      }
    },
    {
      "fullUrl": "urn:uuid:370601ad-e645-4ace-a26a-93ad453aefba",
      "resource": {
        "resourceType": "DiagnosticReport",
        "id": "370601ad-e645-4ace-a26a-93ad453aefba",
        "meta": {
          "profile": [
            "http://hl7.eu/fhir/laboratory/StructureDefinition/DiagnosticReport-eu-lab"
          ]
        },
        "identifier": [
          {
            "assigner": {
              "display": "HL7 Europe"
            },
            "system": "urn:oid:2.16.840.1.113883.2.51.999",
            "value": "ff1a4809-d48e-40b8-85d3-e2ba597f7613"
          }
        ],
        "extension": [
          {
            "url": "http://hl7.org/fhir/5.0/StructureDefinition/extension-DiagnosticReport.composition",
            "valueReference": {
              "reference": "urn:uuid:9b731670-f66c-4334-a24e-853ed273e678"
            }
          }
        ],
        "category": [
          {
            "coding": [
              {
                "code": "18719-5",
                "system": "http://loinc.org",
                "display": "Chemistry studies (set)"
              }
            ]
          }
        ],
        "specimen": [
          {
            "reference": "urn:uuid:170a1ffe-efb1-4e67-8055-814fd0fa6e21"
          },
          {
            "reference": "urn:uuid:117177ce-09fc-4836-ab3a-db4ed5245984"
          },
          {
            "reference": "urn:uuid:6f7361f3-c920-4ee8-88ed-dc684930ebd8"
          }
        ],
        "result": [
          {
            "reference": "urn:uuid:9ab07d0d-847e-4713-b1a4-0445cda824a0"
          },
          {
            "reference": "urn:uuid:078bd33e-6405-4414-94e4-1491d9bef664"
          },
          {
            "reference": "urn:uuid:59dfb4ab-6b1e-436c-9efb-bbfa0336f1bc"
          },
          {
            "reference": "urn:uuid:35073574-f1fb-49ba-b029-4c90cdffb16a"
          },
          {
            "reference": "urn:uuid:be5873cb-33fa-422f-99a4-e6404b92c6ac"
          },
          {
            "reference": "urn:uuid:22a76c9a-87bf-4c7c-bdfa-4dcc23d42935"
          },
          {
            "reference": "urn:uuid:4055431b-f10b-4fab-9f05-e19c498986b2"
          },
          {
            "reference": "urn:uuid:7d2fd19f-8d59-47f8-88ac-389ff6a91323"
          },
          {
            "reference": "urn:uuid:9bb3253d-96bb-44bf-9fc1-6e55136c18f5"
          },
          {
            "reference": "urn:uuid:dadfdc36-7689-4dca-a454-00b016553fa5"
          },
          {
            "reference": "urn:uuid:5a0bd2bb-0b2a-43a9-a487-53c5b1ce25f2"
          },
          {
            "reference": "urn:uuid:95d932c6-a0d9-451f-ab44-56df03b054db"
          },
          {
            "reference": "urn:uuid:763fe913-1828-4f42-a0a9-fb110b86af1b"
          },
          {
            "reference": "urn:uuid:a954473d-d182-4b6b-a859-07fb1a9d2b35"
          },
          {
            "reference": "urn:uuid:0027ea11-2a99-4d74-93a6-51401379fe6a"
          },
          {
            "reference": "urn:uuid:a19bd339-1a65-45c7-a637-469082a38d4f"
          },
          {
            "reference": "urn:uuid:81bbe39e-0c09-4537-832f-2c1c0dbce03b"
          },
          {
            "reference": "urn:uuid:59f37241-8dc6-4ff2-8c77-38a191ffbb5a"
          },
          {
            "reference": "urn:uuid:add8c11a-4f64-4ebf-9125-2ccfa15d8666"
          }
        ],
        "status": "registered",
        "code": {
          "coding": [
            {
              "code": "11502-2",
              "system": "http://loinc.org",
              "display": "Laboratory report"
            }
          ]
        },
        "subject": {
          "reference": "urn:uuid:87412de1-a8eb-4e49-ac49-b3606214d607"
        }
      }
    },
    {
      "fullUrl": "urn:uuid:87412de1-a8eb-4e49-ac49-b3606214d607",
      "resource": {
        "resourceType": "Patient",
        "id": "87412de1-a8eb-4e49-ac49-b3606214d607",
        "meta": {
          "profile": [
            "http://hl7.eu/fhir/laboratory/StructureDefinition/Patient-eu-lab"
          ]
        },
        "identifier": [
          {
            "type": {
              "coding": [
                {
                  "code": "NI",
                  "system": "http://terminology.hl7.org/CodeSystem/v2-0203"
                }
              ]
            },
            "system": "http://ec.europa.eu/identifier/eci",
            "value": "1778-031914-5"
          },
          {
            "type": {
              "coding": [
                {
                  "code": "MR",
                  "system": "http://terminology.hl7.org/CodeSystem/v2-0203"
                }
              ]
            },
            "system": "http://local.setting.eu/identifier",
            "value": "42f5ea83-5d11-46a8-aa93-80932a5cd816"
          }
        ],
        "name": [
          {
            "given": [
              "Ida"
            ],
            "family": "den Braber",
            "text": "Ida den Braber"
          }
        ],
        "address": [
          {
            "line": [
              "Vekenoord 182"
            ],
            "use": "home",
            "type": "physical",
            "city": "Breda",
            "postalCode": "4824 LM",
            "country": "Netherlands"
          }
        ],
        "telecom": [
          {
            "system": "phone",
            "value": "+31 06-27118511"
          }
        ],
        "gender": "female",
        "birthDate": "1944-04-22"
      }
    },
    {
      "fullUrl": "urn:uuid:0cff260d-aabf-4a69-889f-85c8d89391dd",
      "resource": {
        "resourceType": "ServiceRequest",
        "id": "0cff260d-aabf-4a69-889f-85c8d89391dd",
        "meta": {
          "profile": [
            "http://hl7.eu/fhir/laboratory/StructureDefinition/ServiceRequest-eu-lab"
          ]
        },
        "identifier": [
          {
            "system": "http://example.org",
            "value": "1e7249ce-8dec-4eef-b416-145fc6de0aa7"
          }
        ],
        "specimen": [
          {
            "reference": "urn:uuid:170a1ffe-efb1-4e67-8055-814fd0fa6e21"
          },
          {
            "reference": "urn:uuid:117177ce-09fc-4836-ab3a-db4ed5245984"
          },
          {
            "reference": "urn:uuid:6f7361f3-c920-4ee8-88ed-dc684930ebd8"
          }
        ],
        "status": "active",
        "intent": "order",
        "code": {
          "coding": [
            {
              "code": "108252007",
              "system": "http://snomed.info/sct",
              "display": "Laboratory procedure"
            }
          ]
        },
        "subject": {
          "reference": "urn:uuid:87412de1-a8eb-4e49-ac49-b3606214d607"
        },
        "requester": {
          "reference": "urn:uuid:ed1eb7e3-9e75-496c-a798-239cad9131d3"
        }
      }
    },
    {
      "fullUrl": "urn:uuid:ed1eb7e3-9e75-496c-a798-239cad9131d3",
      "resource": {
        "resourceType": "PractitionerRole",
        "id": "ed1eb7e3-9e75-496c-a798-239cad9131d3",
        "meta": {
          "profile": [
            "http://hl7.eu/fhir/laboratory/StructureDefinition/PractitionerRole-eu-lab"
          ]
        },
        "organization": {
          "reference": "urn:uuid:d3074794-c874-4b7d-9595-770ee3507ac5"
        }
      }
    },
    {
      "fullUrl": "urn:uuid:d3074794-c874-4b7d-9595-770ee3507ac5",
      "resource": {
        "resourceType": "Organization",
        "id": "d3074794-c874-4b7d-9595-770ee3507ac5",
        "meta": {
          "profile": [
            "http://hl7.org/fhir/uv/ips/StructureDefinition/Organization-uv-ips"
          ]
        },
        "identifier": [
          {
            "assigner": {
              "display": "HL7 Europe"
            },
            "system": "urn:oid:2.16.840.1.113883.2.51.999",
            "value": "fc6f7626-8e04-4c9e-ba65-5975051adaf5"
          }
        ],
        "address": [
          {
            "line": [
              "Abdijstraat 26"
            ],
            "city": "Breda",
            "postalCode": "4811",
            "country": "nl"
          }
        ],
        "name": "Doornbos Fysio Groep"
      }
    },
    {
      "fullUrl": "urn:uuid:191aa8fb-cba6-4ec0-907f-d67f3228cd8d",
      "resource": {
        "resourceType": "PractitionerRole",
        "id": "191aa8fb-cba6-4ec0-907f-d67f3228cd8d",
        "meta": {
          "profile": [
            "http://hl7.eu/fhir/laboratory/StructureDefinition/PractitionerRole-eu-lab"
          ]
        },
        "practitioner": {
          "reference": "urn:uuid:1aa4353a-e22b-4e81-9e05-71ee6c20c770"
        }
      }
    },
    {
      "fullUrl": "urn:uuid:1aa4353a-e22b-4e81-9e05-71ee6c20c770",
      "resource": {
        "resourceType": "Practitioner",
        "id": "1aa4353a-e22b-4e81-9e05-71ee6c20c770",
        "meta": {
          "profile": [
            "http://hl7.eu/fhir/laboratory/StructureDefinition/Practitioner-eu-lab"
          ]
        },
        "identifier": [
          {
            "assigner": {
              "display": "HL7 Europe"
            },
            "system": "urn:oid:2.16.840.1.113883.2.51.999",
            "value": "a4887dc5-c686-43bd-a840-cef7230ba5cd"
          }
        ],
        "name": [
          {
            "prefix": [
              "dr"
            ],
            "given": [
              "Ex"
            ],
            "family": "Ample"
          }
        ],
        "address": [
          {
            "line": [
              "Boulevard du Jardin Botanique 32"
            ],
            "city": "Brussels",
            "postalCode": "1000"
          }
        ]
      }
    },
    {
      "fullUrl": "urn:uuid:170a1ffe-efb1-4e67-8055-814fd0fa6e21",
      "resource": {
        "resourceType": "Specimen",
        "id": "170a1ffe-efb1-4e67-8055-814fd0fa6e21",
        "meta": {
          "profile": [
            "http://hl7.eu/fhir/laboratory/StructureDefinition/Specimen-eu-lab"
          ]
        },
        "collection": {
          "collectedDateTime": "2024-11-29"
        },
        "status": "available",
        "type": {
          "coding": [
            {
              "code": "258580003",
              "system": "http://snomed.info/sct",
              "display": "Whole blood specimen (specimen)"
            }
          ]
        }
      }
    },
    {
      "fullUrl": "urn:uuid:117177ce-09fc-4836-ab3a-db4ed5245984",
      "resource": {
        "resourceType": "Specimen",
        "id": "117177ce-09fc-4836-ab3a-db4ed5245984",
        "meta": {
          "profile": [
            "http://hl7.eu/fhir/laboratory/StructureDefinition/Specimen-eu-lab"
          ]
        },
        "collection": {
          "collectedDateTime": "2024-11-29"
        },
        "status": "available",
        "type": {
          "coding": [
            {
              "code": "122592007",
              "system": "http://snomed.info/sct",
              "display": "Acellular blood (serum or plasma) specimen (specimen)"
            }
          ]
        }
      }
    },
    {
      "fullUrl": "urn:uuid:6f7361f3-c920-4ee8-88ed-dc684930ebd8",
      "resource": {
        "resourceType": "Specimen",
        "id": "6f7361f3-c920-4ee8-88ed-dc684930ebd8",
        "meta": {
          "profile": [
            "http://hl7.eu/fhir/laboratory/StructureDefinition/Specimen-eu-lab"
          ]
        },
        "collection": {
          "collectedDateTime": "2024-11-29"
        },
        "status": "available",
        "type": {
          "coding": [
            {
              "code": "119364003",
              "system": "http://snomed.info/sct",
              "display": "Serum specimen (specimen)"
            }
          ]
        }
      }
    },
    {
      "fullUrl": "urn:uuid:9ab07d0d-847e-4713-b1a4-0445cda824a0",
      "resource": {
        "resourceType": "Observation",
        "id": "9ab07d0d-847e-4713-b1a4-0445cda824a0",
        "meta": {
          "profile": [
            "http://hl7.eu/fhir/laboratory/StructureDefinition/Observation-resultslab-eu-lab"
          ]
        },
        "performer": [
          {
            "display": "The Central European Lab"
          }
        ],
        "category": [
          {
            "coding": [
              {
                "code": "laboratory",
                "system": "http://terminology.hl7.org/CodeSystem/observation-category"
              }
            ]
          }
        ],
        "code": {
          "coding": [
            {
              "code": "2339-0",
              "system": "http://loinc.org",
              "display": "Glucose [Mass/volume] in Blood"
            }
          ],
          "text": "Glucose [Mass/volume] in Blood"
        },
        "valueQuantity": {
          "system": "http://unitsofmeasure.org",
          "value": 78.4,
          "unit": "mg/dL",
          "code": "mg/dL"
        },
        "referenceRange": [
          {
            "low": {
              "value": 70,
              "code": "mg/dL",
              "system": "http://unitsofmeasure.org"
            }
          },
          {
            "high": {
              "value": 140,
              "code": "mg/dL",
              "system": "http://unitsofmeasure.org"
            }
          }
        ],
        "status": "final",
        "subject": {
          "reference": "urn:uuid:87412de1-a8eb-4e49-ac49-b3606214d607"
        },
        "effectiveDateTime": "2024-11-29",
        "specimen": {
          "reference": "urn:uuid:170a1ffe-efb1-4e67-8055-814fd0fa6e21"
        }
      }
    },
    {
      "fullUrl": "urn:uuid:078bd33e-6405-4414-94e4-1491d9bef664",
      "resource": {
        "resourceType": "Observation",
        "id": "078bd33e-6405-4414-94e4-1491d9bef664",
        "meta": {
          "profile": [
            "http://hl7.eu/fhir/laboratory/StructureDefinition/Observation-resultslab-eu-lab"
          ]
        },
        "performer": [
          {
            "display": "The Central European Lab"
          }
        ],
        "category": [
          {
            "coding": [
              {
                "code": "laboratory",
                "system": "http://terminology.hl7.org/CodeSystem/observation-category"
              }
            ]
          }
        ],
        "code": {
          "coding": [
            {
              "code": "6299-2",
              "system": "http://loinc.org",
              "display": "Urea nitrogen [Mass/volume] in Blood"
            }
          ],
          "text": "Urea nitrogen [Mass/volume] in Blood"
        },
        "valueQuantity": {
          "system": "http://unitsofmeasure.org",
          "value": 7.3,
          "unit": "mg/dL",
          "code": "mg/dL"
        },
        "referenceRange": [
          {
            "low": {
              "value": 7,
              "code": "mg/dL",
              "system": "http://unitsofmeasure.org"
            }
          },
          {
            "high": {
              "value": 20,
              "code": "mg/dL",
              "system": "http://unitsofmeasure.org"
            }
          }
        ],
        "status": "final",
        "subject": {
          "reference": "urn:uuid:87412de1-a8eb-4e49-ac49-b3606214d607"
        },
        "effectiveDateTime": "2024-11-29",
        "specimen": {
          "reference": "urn:uuid:170a1ffe-efb1-4e67-8055-814fd0fa6e21"
        }
      }
    },
    {
      "fullUrl": "urn:uuid:59dfb4ab-6b1e-436c-9efb-bbfa0336f1bc",
      "resource": {
        "resourceType": "Observation",
        "id": "59dfb4ab-6b1e-436c-9efb-bbfa0336f1bc",
        "meta": {
          "profile": [
            "http://hl7.eu/fhir/laboratory/StructureDefinition/Observation-resultslab-eu-lab"
          ]
        },
        "performer": [
          {
            "display": "The Central European Lab"
          }
        ],
        "category": [
          {
            "coding": [
              {
                "code": "laboratory",
                "system": "http://terminology.hl7.org/CodeSystem/observation-category"
              }
            ]
          }
        ],
        "code": {
          "coding": [
            {
              "code": "38483-4",
              "system": "http://loinc.org",
              "display": "Creatinine [Mass/volume] in Blood"
            }
          ],
          "text": "Creatinine [Mass/volume] in Blood"
        },
        "valueQuantity": {
          "system": "http://unitsofmeasure.org",
          "value": 2.9,
          "unit": "mg/dL",
          "code": "mg/dL"
        },
        "referenceRange": [
          {
            "low": {
              "value": 0.6,
              "code": "mg/dL",
              "system": "http://unitsofmeasure.org"
            }
          },
          {
            "high": {
              "value": 1.3,
              "code": "mg/dL",
              "system": "http://unitsofmeasure.org"
            }
          }
        ],
        "interpretation": [
          {
            "coding": [
              {
                "code": "H",
                "system": "http://terminology.hl7.org/CodeSystem/v3-ObservationInterpretation",
                "display": "High"
              }
            ]
          }
        ],
        "status": "final",
        "subject": {
          "reference": "urn:uuid:87412de1-a8eb-4e49-ac49-b3606214d607"
        },
        "effectiveDateTime": "2024-11-29",
        "specimen": {
          "reference": "urn:uuid:170a1ffe-efb1-4e67-8055-814fd0fa6e21"
        }
      }
    },
    {
      "fullUrl": "urn:uuid:35073574-f1fb-49ba-b029-4c90cdffb16a",
      "resource": {
        "resourceType": "Observation",
        "id": "35073574-f1fb-49ba-b029-4c90cdffb16a",
        "meta": {
          "profile": [
            "http://hl7.eu/fhir/laboratory/StructureDefinition/Observation-resultslab-eu-lab"
          ]
        },
        "performer": [
          {
            "display": "The Central European Lab"
          }
        ],
        "category": [
          {
            "coding": [
              {
                "code": "laboratory",
                "system": "http://terminology.hl7.org/CodeSystem/observation-category"
              }
            ]
          }
        ],
        "code": {
          "coding": [
            {
              "code": "49765-1",
              "system": "http://loinc.org",
              "display": "Calcium [Mass/volume] in Blood"
            }
          ],
          "text": "Calcium [Mass/volume] in Blood"
        },
        "valueQuantity": {
          "system": "http://unitsofmeasure.org",
          "value": 9,
          "unit": "mg/dL",
          "code": "mg/dL"
        },
        "referenceRange": [
          {
            "low": {
              "value": 8.5,
              "code": "mg/dL",
              "system": "http://unitsofmeasure.org"
            }
          },
          {
            "high": {
              "value": 10.5,
              "code": "mg/dL",
              "system": "http://unitsofmeasure.org"
            }
          }
        ],
        "status": "final",
        "subject": {
          "reference": "urn:uuid:87412de1-a8eb-4e49-ac49-b3606214d607"
        },
        "effectiveDateTime": "2024-11-29",
        "specimen": {
          "reference": "urn:uuid:170a1ffe-efb1-4e67-8055-814fd0fa6e21"
        }
      }
    },
    {
      "fullUrl": "urn:uuid:be5873cb-33fa-422f-99a4-e6404b92c6ac",
      "resource": {
        "resourceType": "Observation",
        "id": "be5873cb-33fa-422f-99a4-e6404b92c6ac",
        "meta": {
          "profile": [
            "http://hl7.eu/fhir/laboratory/StructureDefinition/Observation-resultslab-eu-lab"
          ]
        },
        "performer": [
          {
            "display": "The Central European Lab"
          }
        ],
        "category": [
          {
            "coding": [
              {
                "code": "laboratory",
                "system": "http://terminology.hl7.org/CodeSystem/observation-category"
              }
            ]
          }
        ],
        "code": {
          "coding": [
            {
              "code": "2947-0",
              "system": "http://loinc.org",
              "display": "Sodium [Moles/volume] in Blood"
            }
          ],
          "text": "Sodium [Moles/volume] in Blood"
        },
        "valueQuantity": {
          "system": "http://unitsofmeasure.org",
          "value": 141.8,
          "unit": "mmol/L",
          "code": "mmol/L"
        },
        "referenceRange": [
          {
            "low": {
              "value": 135,
              "code": "mmol/L",
              "system": "http://unitsofmeasure.org"
            }
          },
          {
            "high": {
              "value": 145,
              "code": "mmol/L",
              "system": "http://unitsofmeasure.org"
            }
          }
        ],
        "status": "final",
        "subject": {
          "reference": "urn:uuid:87412de1-a8eb-4e49-ac49-b3606214d607"
        },
        "effectiveDateTime": "2024-11-29",
        "specimen": {
          "reference": "urn:uuid:170a1ffe-efb1-4e67-8055-814fd0fa6e21"
        }
      }
    },
    {
      "fullUrl": "urn:uuid:22a76c9a-87bf-4c7c-bdfa-4dcc23d42935",
      "resource": {
        "resourceType": "Observation",
        "id": "22a76c9a-87bf-4c7c-bdfa-4dcc23d42935",
        "meta": {
          "profile": [
            "http://hl7.eu/fhir/laboratory/StructureDefinition/Observation-resultslab-eu-lab"
          ]
        },
        "performer": [
          {
            "display": "The Central European Lab"
          }
        ],
        "category": [
          {
            "coding": [
              {
                "code": "laboratory",
                "system": "http://terminology.hl7.org/CodeSystem/observation-category"
              }
            ]
          }
        ],
        "code": {
          "coding": [
            {
              "code": "6298-4",
              "system": "http://loinc.org",
              "display": "Potassium [Moles/volume] in Blood"
            }
          ],
          "text": "Potassium [Moles/volume] in Blood"
        },
        "valueQuantity": {
          "system": "http://unitsofmeasure.org",
          "value": 5.1,
          "unit": "mmol/L",
          "code": "mmol/L"
        },
        "referenceRange": [
          {
            "low": {
              "value": 3.5,
              "code": "mmol/L",
              "system": "http://unitsofmeasure.org"
            }
          },
          {
            "high": {
              "value": 5.3,
              "code": "mmol/L",
              "system": "http://unitsofmeasure.org"
            }
          }
        ],
        "status": "final",
        "subject": {
          "reference": "urn:uuid:87412de1-a8eb-4e49-ac49-b3606214d607"
        },
        "effectiveDateTime": "2024-11-29",
        "specimen": {
          "reference": "urn:uuid:170a1ffe-efb1-4e67-8055-814fd0fa6e21"
        }
      }
    },
    {
      "fullUrl": "urn:uuid:4055431b-f10b-4fab-9f05-e19c498986b2",
      "resource": {
        "resourceType": "Observation",
        "id": "4055431b-f10b-4fab-9f05-e19c498986b2",
        "meta": {
          "profile": [
            "http://hl7.eu/fhir/laboratory/StructureDefinition/Observation-resultslab-eu-lab"
          ]
        },
        "performer": [
          {
            "display": "The Central European Lab"
          }
        ],
        "category": [
          {
            "coding": [
              {
                "code": "laboratory",
                "system": "http://terminology.hl7.org/CodeSystem/observation-category"
              }
            ]
          }
        ],
        "code": {
          "coding": [
            {
              "code": "2069-3",
              "system": "http://loinc.org",
              "display": "Chloride [Moles/volume] in Blood"
            }
          ],
          "text": "Chloride [Moles/volume] in Blood"
        },
        "valueQuantity": {
          "system": "http://unitsofmeasure.org",
          "value": 102,
          "unit": "mmol/L",
          "code": "mmol/L"
        },
        "referenceRange": [
          {
            "low": {
              "value": 98,
              "code": "mmol/L",
              "system": "http://unitsofmeasure.org"
            }
          },
          {
            "high": {
              "value": 108,
              "code": "mmol/L",
              "system": "http://unitsofmeasure.org"
            }
          }
        ],
        "status": "final",
        "subject": {
          "reference": "urn:uuid:87412de1-a8eb-4e49-ac49-b3606214d607"
        },
        "effectiveDateTime": "2024-11-29",
        "specimen": {
          "reference": "urn:uuid:170a1ffe-efb1-4e67-8055-814fd0fa6e21"
        }
      }
    },
    {
      "fullUrl": "urn:uuid:7d2fd19f-8d59-47f8-88ac-389ff6a91323",
      "resource": {
        "resourceType": "Observation",
        "id": "7d2fd19f-8d59-47f8-88ac-389ff6a91323",
        "meta": {
          "profile": [
            "http://hl7.eu/fhir/laboratory/StructureDefinition/Observation-resultslab-eu-lab"
          ]
        },
        "performer": [
          {
            "display": "The Central European Lab"
          }
        ],
        "category": [
          {
            "coding": [
              {
                "code": "laboratory",
                "system": "http://terminology.hl7.org/CodeSystem/observation-category"
              }
            ]
          }
        ],
        "code": {
          "coding": [
            {
              "code": "20565-8",
              "system": "http://loinc.org",
              "display": "Carbon dioxide, total [Moles/volume] in Blood"
            }
          ],
          "text": "Carbon dioxide, total [Moles/volume] in Blood"
        },
        "valueQuantity": {
          "system": "http://unitsofmeasure.org",
          "value": 26,
          "unit": "mmol/L",
          "code": "mmol/L"
        },
        "referenceRange": [
          {
            "low": {
              "value": 22,
              "code": "mmol/L",
              "system": "http://unitsofmeasure.org"
            }
          },
          {
            "high": {
              "value": 29,
              "code": "mmol/L",
              "system": "http://unitsofmeasure.org"
            }
          }
        ],
        "status": "final",
        "subject": {
          "reference": "urn:uuid:87412de1-a8eb-4e49-ac49-b3606214d607"
        },
        "effectiveDateTime": "2024-11-29",
        "specimen": {
          "reference": "urn:uuid:170a1ffe-efb1-4e67-8055-814fd0fa6e21"
        }
      }
    },
    {
      "fullUrl": "urn:uuid:9bb3253d-96bb-44bf-9fc1-6e55136c18f5",
      "resource": {
        "resourceType": "Observation",
        "id": "9bb3253d-96bb-44bf-9fc1-6e55136c18f5",
        "meta": {
          "profile": [
            "http://hl7.eu/fhir/laboratory/StructureDefinition/Observation-resultslab-eu-lab"
          ]
        },
        "performer": [
          {
            "display": "The Central European Lab"
          }
        ],
        "category": [
          {
            "coding": [
              {
                "code": "laboratory",
                "system": "http://terminology.hl7.org/CodeSystem/observation-category"
              }
            ]
          }
        ],
        "code": {
          "coding": [
            {
              "code": "2885-2",
              "system": "http://loinc.org",
              "display": "Protein [Mass/volume] in Serum or Plasma"
            }
          ],
          "text": "Protein [Mass/volume] in Serum or Plasma"
        },
        "valueQuantity": {
          "system": "http://unitsofmeasure.org",
          "value": 77.3,
          "unit": "g/dL",
          "code": "g/dL"
        },
        "referenceRange": [
          {
            "low": {
              "value": 61,
              "code": "g/dL",
              "system": "http://unitsofmeasure.org"
            }
          },
          {
            "high": {
              "value": 79,
              "code": "g/dL",
              "system": "http://unitsofmeasure.org"
            }
          }
        ],
        "status": "final",
        "subject": {
          "reference": "urn:uuid:87412de1-a8eb-4e49-ac49-b3606214d607"
        },
        "effectiveDateTime": "2024-11-29",
        "specimen": {
          "reference": "urn:uuid:117177ce-09fc-4836-ab3a-db4ed5245984"
        }
      }
    },
    {
      "fullUrl": "urn:uuid:dadfdc36-7689-4dca-a454-00b016553fa5",
      "resource": {
        "resourceType": "Observation",
        "id": "dadfdc36-7689-4dca-a454-00b016553fa5",
        "meta": {
          "profile": [
            "http://hl7.eu/fhir/laboratory/StructureDefinition/Observation-resultslab-eu-lab"
          ]
        },
        "performer": [
          {
            "display": "The Central European Lab"
          }
        ],
        "category": [
          {
            "coding": [
              {
                "code": "laboratory",
                "system": "http://terminology.hl7.org/CodeSystem/observation-category"
              }
            ]
          }
        ],
        "code": {
          "coding": [
            {
              "code": "1751-7",
              "system": "http://loinc.org",
              "display": "Albumin [Mass/volume] in Serum or Plasma"
            }
          ],
          "text": "Albumin [Mass/volume] in Serum or Plasma"
        },
        "valueQuantity": {
          "system": "http://unitsofmeasure.org",
          "value": 4.9,
          "unit": "g/dL",
          "code": "g/dL"
        },
        "referenceRange": [
          {
            "low": {
              "value": 3.5,
              "code": "g/dL",
              "system": "http://unitsofmeasure.org"
            }
          },
          {
            "high": {
              "value": 5.5,
              "code": "g/dL",
              "system": "http://unitsofmeasure.org"
            }
          }
        ],
        "status": "final",
        "subject": {
          "reference": "urn:uuid:87412de1-a8eb-4e49-ac49-b3606214d607"
        },
        "effectiveDateTime": "2024-11-29",
        "specimen": {
          "reference": "urn:uuid:117177ce-09fc-4836-ab3a-db4ed5245984"
        }
      }
    },
    {
      "fullUrl": "urn:uuid:5a0bd2bb-0b2a-43a9-a487-53c5b1ce25f2",
      "resource": {
        "resourceType": "Observation",
        "id": "5a0bd2bb-0b2a-43a9-a487-53c5b1ce25f2",
        "meta": {
          "profile": [
            "http://hl7.eu/fhir/laboratory/StructureDefinition/Observation-resultslab-eu-lab"
          ]
        },
        "performer": [
          {
            "display": "The Central European Lab"
          }
        ],
        "category": [
          {
            "coding": [
              {
                "code": "laboratory",
                "system": "http://terminology.hl7.org/CodeSystem/observation-category"
              }
            ]
          }
        ],
        "code": {
          "coding": [
            {
              "code": "10834-0",
              "system": "http://loinc.org",
              "display": "Globulin [Mass/volume] in Serum by calculation"
            }
          ],
          "text": "Globulin [Mass/volume] in Serum by calculation"
        },
        "valueQuantity": {
          "system": "http://unitsofmeasure.org",
          "value": 3.2,
          "unit": "g/L",
          "code": "g/L"
        },
        "referenceRange": [
          {
            "low": {
              "value": 2,
              "code": "g/L",
              "system": "http://unitsofmeasure.org"
            }
          },
          {
            "high": {
              "value": 3.9,
              "code": "g/L",
              "system": "http://unitsofmeasure.org"
            }
          }
        ],
        "status": "final",
        "subject": {
          "reference": "urn:uuid:87412de1-a8eb-4e49-ac49-b3606214d607"
        },
        "effectiveDateTime": "2024-11-29",
        "specimen": {
          "reference": "urn:uuid:6f7361f3-c920-4ee8-88ed-dc684930ebd8"
        }
      }
    },
    {
      "fullUrl": "urn:uuid:95d932c6-a0d9-451f-ab44-56df03b054db",
      "resource": {
        "resourceType": "Observation",
        "id": "95d932c6-a0d9-451f-ab44-56df03b054db",
        "meta": {
          "profile": [
            "http://hl7.eu/fhir/laboratory/StructureDefinition/Observation-resultslab-eu-lab"
          ]
        },
        "performer": [
          {
            "display": "The Central European Lab"
          }
        ],
        "category": [
          {
            "coding": [
              {
                "code": "laboratory",
                "system": "http://terminology.hl7.org/CodeSystem/observation-category"
              }
            ]
          }
        ],
        "code": {
          "coding": [
            {
              "code": "1975-2",
              "system": "http://loinc.org",
              "display": "Bilirubin.total [Mass/volume] in Serum or Plasma"
            }
          ],
          "text": "Bilirubin.total [Mass/volume] in Serum or Plasma"
        },
        "valueQuantity": {
          "system": "http://unitsofmeasure.org",
          "value": 1.1,
          "unit": "mg/dL",
          "code": "mg/dL"
        },
        "referenceRange": [
          {
            "low": {
              "value": 0.3,
              "code": "mg/dL",
              "system": "http://unitsofmeasure.org"
            }
          },
          {
            "high": {
              "value": 1.2,
              "code": "mg/dL",
              "system": "http://unitsofmeasure.org"
            }
          }
        ],
        "status": "final",
        "subject": {
          "reference": "urn:uuid:87412de1-a8eb-4e49-ac49-b3606214d607"
        },
        "effectiveDateTime": "2024-11-29",
        "specimen": {
          "reference": "urn:uuid:117177ce-09fc-4836-ab3a-db4ed5245984"
        }
      }
    },
    {
      "fullUrl": "urn:uuid:763fe913-1828-4f42-a0a9-fb110b86af1b",
      "resource": {
        "resourceType": "Observation",
        "id": "763fe913-1828-4f42-a0a9-fb110b86af1b",
        "meta": {
          "profile": [
            "http://hl7.eu/fhir/laboratory/StructureDefinition/Observation-resultslab-eu-lab"
          ]
        },
        "performer": [
          {
            "display": "The Central European Lab"
          }
        ],
        "category": [
          {
            "coding": [
              {
                "code": "laboratory",
                "system": "http://terminology.hl7.org/CodeSystem/observation-category"
              }
            ]
          }
        ],
        "code": {
          "coding": [
            {
              "code": "6768-6",
              "system": "http://loinc.org",
              "display": "Alkaline phosphatase [Enzymatic activity/volume] in Serum or Plasma"
            }
          ],
          "text": "Alkaline phosphatase [Enzymatic activity/volume] in Serum or Plasma"
        },
        "valueQuantity": {
          "system": "http://unitsofmeasure.org",
          "value": 38.2,
          "unit": "U/L",
          "code": "U/L"
        },
        "referenceRange": [
          {
            "low": {
              "value": 32,
              "code": "U/L",
              "system": "http://unitsofmeasure.org"
            }
          },
          {
            "high": {
              "value": 150,
              "code": "U/L",
              "system": "http://unitsofmeasure.org"
            }
          }
        ],
        "status": "final",
        "subject": {
          "reference": "urn:uuid:87412de1-a8eb-4e49-ac49-b3606214d607"
        },
        "effectiveDateTime": "2024-11-29",
        "specimen": {
          "reference": "urn:uuid:117177ce-09fc-4836-ab3a-db4ed5245984"
        }
      }
    },
    {
      "fullUrl": "urn:uuid:a954473d-d182-4b6b-a859-07fb1a9d2b35",
      "resource": {
        "resourceType": "Observation",
        "id": "a954473d-d182-4b6b-a859-07fb1a9d2b35",
        "meta": {
          "profile": [
            "http://hl7.eu/fhir/laboratory/StructureDefinition/Observation-resultslab-eu-lab"
          ]
        },
        "performer": [
          {
            "display": "The Central European Lab"
          }
        ],
        "category": [
          {
            "coding": [
              {
                "code": "laboratory",
                "system": "http://terminology.hl7.org/CodeSystem/observation-category"
              }
            ]
          }
        ],
        "code": {
          "coding": [
            {
              "code": "1742-6",
              "system": "http://loinc.org",
              "display": "Alanine aminotransferase [Enzymatic activity/volume] in Serum or Plasma"
            }
          ],
          "text": "Alanine aminotransferase [Enzymatic activity/volume] in Serum or Plasma"
        },
        "valueQuantity": {
          "system": "http://unitsofmeasure.org",
          "value": 20.3,
          "unit": "U/L",
          "code": "U/L"
        },
        "referenceRange": [
          {
            "low": {
              "value": 7,
              "code": "U/L",
              "system": "http://unitsofmeasure.org"
            }
          },
          {
            "high": {
              "value": 60,
              "code": "U/L",
              "system": "http://unitsofmeasure.org"
            }
          }
        ],
        "status": "final",
        "subject": {
          "reference": "urn:uuid:87412de1-a8eb-4e49-ac49-b3606214d607"
        },
        "effectiveDateTime": "2024-11-29",
        "specimen": {
          "reference": "urn:uuid:117177ce-09fc-4836-ab3a-db4ed5245984"
        }
      }
    },
    {
      "fullUrl": "urn:uuid:0027ea11-2a99-4d74-93a6-51401379fe6a",
      "resource": {
        "resourceType": "Observation",
        "id": "0027ea11-2a99-4d74-93a6-51401379fe6a",
        "meta": {
          "profile": [
            "http://hl7.eu/fhir/laboratory/StructureDefinition/Observation-resultslab-eu-lab"
          ]
        },
        "performer": [
          {
            "display": "The Central European Lab"
          }
        ],
        "category": [
          {
            "coding": [
              {
                "code": "laboratory",
                "system": "http://terminology.hl7.org/CodeSystem/observation-category"
              }
            ]
          }
        ],
        "code": {
          "coding": [
            {
              "code": "1920-8",
              "system": "http://loinc.org",
              "display": "Aspartate aminotransferase [Enzymatic activity/volume] in Serum or Plasma"
            }
          ],
          "text": "Aspartate aminotransferase [Enzymatic activity/volume] in Serum or Plasma"
        },
        "valueQuantity": {
          "system": "http://unitsofmeasure.org",
          "value": 37.4,
          "unit": "U/L",
          "code": "U/L"
        },
        "referenceRange": [
          {
            "low": {
              "value": 10,
              "code": "U/L",
              "system": "http://unitsofmeasure.org"
            }
          },
          {
            "high": {
              "value": 40,
              "code": "U/L",
              "system": "http://unitsofmeasure.org"
            }
          }
        ],
        "status": "final",
        "subject": {
          "reference": "urn:uuid:87412de1-a8eb-4e49-ac49-b3606214d607"
        },
        "effectiveDateTime": "2024-11-29",
        "specimen": {
          "reference": "urn:uuid:117177ce-09fc-4836-ab3a-db4ed5245984"
        }
      }
    },
    {
      "fullUrl": "urn:uuid:a19bd339-1a65-45c7-a637-469082a38d4f",
      "resource": {
        "resourceType": "Observation",
        "id": "a19bd339-1a65-45c7-a637-469082a38d4f",
        "meta": {
          "profile": [
            "http://hl7.eu/fhir/laboratory/StructureDefinition/Observation-resultslab-eu-lab"
          ]
        },
        "performer": [
          {
            "display": "The Central European Lab"
          }
        ],
        "category": [
          {
            "coding": [
              {
                "code": "laboratory",
                "system": "http://terminology.hl7.org/CodeSystem/observation-category"
              }
            ]
          }
        ],
        "code": {
          "coding": [
            {
              "code": "2093-3",
              "system": "http://loinc.org",
              "display": "Cholesterol [Mass/volume] in Serum or Plasma"
            }
          ],
          "text": "Cholesterol [Mass/volume] in Serum or Plasma"
        },
        "valueQuantity": {
          "system": "http://unitsofmeasure.org",
          "value": 209.3,
          "unit": "mg/dL",
          "code": "mg/dL"
        },
        "referenceRange": [
          {
            "low": {
              "value": 0,
              "code": "mg/dL",
              "system": "http://unitsofmeasure.org"
            }
          },
          {
            "high": {
              "value": 200,
              "code": "mg/dL",
              "system": "http://unitsofmeasure.org"
            }
          }
        ],
        "interpretation": [
          {
            "coding": [
              {
                "code": "H",
                "system": "http://terminology.hl7.org/CodeSystem/v3-ObservationInterpretation",
                "display": "High"
              }
            ]
          }
        ],
        "status": "final",
        "subject": {
          "reference": "urn:uuid:87412de1-a8eb-4e49-ac49-b3606214d607"
        },
        "effectiveDateTime": "2024-11-29",
        "specimen": {
          "reference": "urn:uuid:117177ce-09fc-4836-ab3a-db4ed5245984"
        }
      }
    },
    {
      "fullUrl": "urn:uuid:81bbe39e-0c09-4537-832f-2c1c0dbce03b",
      "resource": {
        "resourceType": "Observation",
        "id": "81bbe39e-0c09-4537-832f-2c1c0dbce03b",
        "meta": {
          "profile": [
            "http://hl7.eu/fhir/laboratory/StructureDefinition/Observation-resultslab-eu-lab"
          ]
        },
        "performer": [
          {
            "display": "The Central European Lab"
          }
        ],
        "category": [
          {
            "coding": [
              {
                "code": "laboratory",
                "system": "http://terminology.hl7.org/CodeSystem/observation-category"
              }
            ]
          }
        ],
        "code": {
          "coding": [
            {
              "code": "2571-8",
              "system": "http://loinc.org",
              "display": "Triglyceride [Mass/volume] in Serum or Plasma"
            }
          ],
          "text": "Triglyceride [Mass/volume] in Serum or Plasma"
        },
        "valueQuantity": {
          "system": "http://unitsofmeasure.org",
          "value": 190.1,
          "unit": "mg/dL",
          "code": "mg/dL"
        },
        "referenceRange": [
          {
            "low": {
              "value": 50,
              "code": "mg/dL",
              "system": "http://unitsofmeasure.org"
            }
          },
          {
            "high": {
              "value": 150,
              "code": "mg/dL",
              "system": "http://unitsofmeasure.org"
            }
          }
        ],
        "interpretation": [
          {
            "coding": [
              {
                "code": "H",
                "system": "http://terminology.hl7.org/CodeSystem/v3-ObservationInterpretation",
                "display": "High"
              }
            ]
          }
        ],
        "status": "final",
        "subject": {
          "reference": "urn:uuid:87412de1-a8eb-4e49-ac49-b3606214d607"
        },
        "effectiveDateTime": "2024-11-29",
        "specimen": {
          "reference": "urn:uuid:117177ce-09fc-4836-ab3a-db4ed5245984"
        }
      }
    },
    {
      "fullUrl": "urn:uuid:59f37241-8dc6-4ff2-8c77-38a191ffbb5a",
      "resource": {
        "resourceType": "Observation",
        "id": "59f37241-8dc6-4ff2-8c77-38a191ffbb5a",
        "meta": {
          "profile": [
            "http://hl7.eu/fhir/laboratory/StructureDefinition/Observation-resultslab-eu-lab"
          ]
        },
        "performer": [
          {
            "display": "The Central European Lab"
          }
        ],
        "category": [
          {
            "coding": [
              {
                "code": "laboratory",
                "system": "http://terminology.hl7.org/CodeSystem/observation-category"
              }
            ]
          }
        ],
        "code": {
          "coding": [
            {
              "code": "18262-6",
              "system": "http://loinc.org",
              "display": "Cholesterol in LDL [Mass/volume] in Serum or Plasma by Direct assay"
            }
          ],
          "text": "Cholesterol in LDL [Mass/volume] in Serum or Plasma by Direct assay"
        },
        "valueQuantity": {
          "system": "http://unitsofmeasure.org",
          "value": 136.3,
          "unit": "mg/dL",
          "code": "mg/dL"
        },
        "referenceRange": [
          {
            "low": {
              "value": 0,
              "code": "mg/dL",
              "system": "http://unitsofmeasure.org"
            }
          },
          {
            "high": {
              "value": 159,
              "code": "mg/dL",
              "system": "http://unitsofmeasure.org"
            }
          }
        ],
        "status": "final",
        "subject": {
          "reference": "urn:uuid:87412de1-a8eb-4e49-ac49-b3606214d607"
        },
        "effectiveDateTime": "2024-11-29",
        "specimen": {
          "reference": "urn:uuid:117177ce-09fc-4836-ab3a-db4ed5245984"
        }
      }
    },
    {
      "fullUrl": "urn:uuid:add8c11a-4f64-4ebf-9125-2ccfa15d8666",
      "resource": {
        "resourceType": "Observation",
        "id": "add8c11a-4f64-4ebf-9125-2ccfa15d8666",
        "meta": {
          "profile": [
            "http://hl7.eu/fhir/laboratory/StructureDefinition/Observation-resultslab-eu-lab"
          ]
        },
        "performer": [
          {
            "display": "The Central European Lab"
          }
        ],
        "category": [
          {
            "coding": [
              {
                "code": "laboratory",
                "system": "http://terminology.hl7.org/CodeSystem/observation-category"
              }
            ]
          }
        ],
        "code": {
          "coding": [
            {
              "code": "2085-9",
              "system": "http://loinc.org",
              "display": "Cholesterol in HDL [Mass/volume] in Serum or Plasma"
            }
          ],
          "text": "Cholesterol in HDL [Mass/volume] in Serum or Plasma"
        },
        "valueQuantity": {
          "system": "http://unitsofmeasure.org",
          "value": 67.8,
          "unit": "mg/dL",
          "code": "mg/dL"
        },
        "referenceRange": [
          {
            "low": {
              "value": 50,
              "code": "mg/dL",
              "system": "http://unitsofmeasure.org"
            }
          },
          {
            "high": {
              "value": 100,
              "code": "mg/dL",
              "system": "http://unitsofmeasure.org"
            }
          }
        ],
        "status": "final",
        "subject": {
          "reference": "urn:uuid:87412de1-a8eb-4e49-ac49-b3606214d607"
        },
        "effectiveDateTime": "2024-11-29",
        "specimen": {
          "reference": "urn:uuid:117177ce-09fc-4836-ab3a-db4ed5245984"
        }
      }
    }
  ],
  "type": "document",
  "timestamp": "2024-11-30T13:32:49Z"
}
