<?xml version="1.0" encoding="UTF-8"?>
<?xml-stylesheet type="text/xsl" href="primary.xsl"?>
<Bundle xmlns="http://hl7.org/fhir">
  <id value="bundlepackageleaflet-en-2f37d696067eeb6daf1111cfc3272672"/>
  <meta>
    <profile value="http://hl7.org/fhir/uv/emedicinal-product-info/StructureDefinition/Bundle-uv-epi"/>
  </meta>
  <language value="en"/>
  <identifier>
    <system value="https://www.gravitatehealth.eu/sid/doc"/>
    <value value="39.955"/>
  </identifier>
  <type value="document"/>
  <timestamp value="2023-06-27T10:09:22Z"/>
  <entry>
    <fullUrl value="http://hl7.eu/fhir/ig/gravitate-health/Composition/composition-en-ac2bb08bb4cc3f51f8c4e3513034c019"/>
    <resource>
      <Composition>
        <id value="composition-en-ac2bb08bb4cc3f51f8c4e3513034c019"/>
        <meta>
          <profile value="http://hl7.org/fhir/uv/emedicinal-product-info/StructureDefinition/Composition-uv-epi"/>
        </meta>
        <language value="en"/>
        <text>
          <status value="generated"/><div xmlns="http://www.w3.org/1999/xhtml" xml:lang="en" lang="en"><a name="Composition_composition-en-ac2bb08bb4cc3f51f8c4e3513034c019"> </a><p class="res-header-id"><b>Generated Narrative: Composition composition-en-ac2bb08bb4cc3f51f8c4e3513034c019</b></p><a name="composition-en-ac2bb08bb4cc3f51f8c4e3513034c019"> </a><a name="hccomposition-en-ac2bb08bb4cc3f51f8c4e3513034c019"> </a><a name="composition-en-ac2bb08bb4cc3f51f8c4e3513034c019-en-US"> </a><div style="display: inline-block; background-color: #d9e0e7; padding: 6px; margin: 4px; border: 1px solid #8da1b4; border-radius: 5px; line-height: 60%"><p style="margin-bottom: 0px">Language: en</p><p style="margin-bottom: 0px">Profile: <a href="https://build.fhir.org/ig/HL7/emedicinal-product-info/StructureDefinition-Composition-uv-epi.html">Composition (ePI)</a></p></div><p><b>identifier</b>: <code>https://spor.ema.europa.eu/rmswi/</code>/534a006e1f56f191eb76fdea4cfbf86d</p><p><b>status</b>: Final</p><p><b>type</b>: <span title="Codes:{https://spor.ema.europa.eu/rmswi/ 100000155538}">Package Leaflet</span></p><p><b>category</b>: <span title="Codes:{http://hl7.eu/fhir/ig/gravitate-health/CodeSystem/epicategory-cs R}">Raw</span></p><p><b>date</b>: 2022-02-16 13:28:17+0000</p><p><b>author</b>: <a href="Bundle-bundlepackageleaflet-en-2f37d696067eeb6daf1111cfc3272672.html#Organization_mah-990eca26437774887062cfa11ea1d904">Bundle: identifier = https://www.gravitatehealth.eu/sid/doc#39.955; type = document; timestamp = 2023-06-27 10:09:22+0000</a></p><p><b>title</b>: TEST PURPOSES ONLY - Tegretol 200 mg tablets</p><h3>Attesters</h3><table class="grid"><tr><td style="display: none">-</td><td><b>Mode</b></td><td><b>Time</b></td></tr><tr><td style="display: none">*</td><td><span title="Codes:{http://hl7.org/fhir/composition-attestation-mode official}">Official</span></td><td>2022-02-16 13:28:17+0000</td></tr></table></div>
        </text>
        <identifier>
          <system value="https://spor.ema.europa.eu/rmswi/"/>
          <value value="534a006e1f56f191eb76fdea4cfbf86d"/>
        </identifier>
        <status value="final"/>
        <type>
          <coding>
            <system value="https://spor.ema.europa.eu/rmswi/"/>
            <code value="100000155538"/>
          </coding>
          <text value="Package Leaflet"/>
        </type>
        <category>
          <coding>
            <system value="http://hl7.eu/fhir/ig/gravitate-health/CodeSystem/epicategory-cs"/>
            <code value="R"/>
            <display value="Raw"/>
          </coding>
        </category>
        <subject>
          <reference value="MedicinalProductDefinition/mpac2bb08bb4cc3f51f8c4e3513034c019"/>
        </subject>
        <date value="2022-02-16T13:28:17Z"/>
        <author>
          <reference value="Organization/mah-990eca26437774887062cfa11ea1d904"/>
        </author>
        <title value="TEST PURPOSES ONLY - Tegretol 200 mg tablets"/>
        <attester>
          <mode>
            <coding>
              <system value="http://hl7.org/fhir/composition-attestation-mode"/>
              <code value="official"/>
            </coding>
          </mode>
          <time value="2022-02-16T13:28:17Z"/>
        </attester>
        <section>
          <title value="B. Package Leaflet"/>
          <code>
            <coding>
              <system value="https://spor.ema.europa.eu/rmswi/"/>
              <code value="100000155538"/>
            </coding>
            <text value="B. Package Leaflet"/>
          </code>
          <text>
            <status value="additional"/><div xmlns="http://www.w3.org/1999/xhtml">unavailable</div>
          </text>
          <emptyReason>
            <coding>
              <system value="http://terminology.hl7.org/CodeSystem/list-empty-reason"/>
              <code value="unavailable"/>
            </coding>
          </emptyReason>
          <section>
            <title value="Package leaflet: Information for the user"/>
            <code>
              <coding>
                <system value="https://spor.ema.europa.eu/rmswi/"/>
                <code value="100000155538"/>
              </coding>
              <text value="Package leaflet: Information for the user"/>
            </code>
            <text>
              <status value="additional"/><div xmlns="http://www.w3.org/1999/xhtml"><ol><li><a href="#section1">What Tegretol Tablets are and what they are used for</a></li><li><a href="#section2">What you need to know before you take Tegretol Tablets</a></li><li><a href="#section3">How to take Tegretol Tablets</a></li><li><a href="#section4">Possible side effects</a></li><li><a href="#section5">How to store Tegretol Tablets</a></li><li><a href="#section6">Contents of the pack and other information</a></li></ol></div>
            </text>
          </section>
          <section>
            <title value="What is in this leaflet"/>
            <code>
              <coding>
                <system value="https://spor.ema.europa.eu/rmswi/"/>
                <code value="100000155538"/>
              </coding>
              <text value="What is in this leaflet"/>
            </code>
            <text>
              <status value="additional"/><div xmlns="http://www.w3.org/1999/xhtml">unavailable</div>
            </text>
            <emptyReason>
              <coding>
                <system value="http://terminology.hl7.org/CodeSystem/list-empty-reason"/>
                <code value="unavailable"/>
              </coding>
            </emptyReason>
          </section>
          <section>
            <title value="1. What Tegretol 200 mg  Tablets  is and what it is used for"/>
            <code>
              <coding>
                <system value="https://spor.ema.europa.eu/rmswi/"/>
                <code value="100000155538"/>
              </coding>
              <text value="1. What Tegretol 200 mg  Tablets  is and what it is used for"/>
            </code>
            <text>
              <status value="additional"/><div xmlns="http://www.w3.org/1999/xhtml"><p>Carbamazepine, the active ingredient in Tegretol Tablets, can affect the body in several different ways. It is an anti-convulsant medicine (prevents fits), it can also modify some types of pain and can control mood disorders.</p><p>Tegretol is used:</p><ul><li>To treat some forms of epilepsy</li><li>To treat a painful condition of the face called trigeminal neuralgia</li><li>To help control serious mood disorders when some other medicines don’t work</li></ul></div>
            </text>
          </section>
          <section>
            <title value="2. What you need to know before you take Tegretol 200 mg  Tablets "/>
            <code>
              <coding>
                <system value="https://spor.ema.europa.eu/rmswi/"/>
                <code value="100000155538"/>
              </coding>
              <text value="2. What you need to know before you take Tegretol 200 mg  Tablets "/>
            </code>
            <text>
              <status value="additional"/><div xmlns="http://www.w3.org/1999/xhtml"><p>Some people MUST NOT take Tegretol Tablets. Talk to your doctor if:</p><ul><li>you think you may be hypersensitive (allergic) to carbamazepine or similar drugs such as oxcarbazepine (Trileptal), or to any of a related group of drugs known as tricyclic antidepressants (such as amitriptyline or imipramine). If you are allergic to carbamazepine there is a one in four (25%) chance that you could also have an allergic reaction to oxcarbazepine.</li><li>you think you may be allergic to any of the other ingredients of Tegretol Tablets (these are listed at the end of the leaflet). Signs of a hypersensitivity reaction include swelling of the face or mouth (angioedema), breathing problems, runny nose, skin rash, blistering or peeling.</li><li>you have any heart problems,</li><li>you have ever had problems with your bone marrow,</li><li>you have a blood disorder called porphyria,</li><li>you have taken drugs called monoamine oxidase inhibitors (MAOIs), used to treat depression, within the last 14 days.</li></ul><p>If any of these apply to you, do not take Tegretol and tell your doctor.</p><p>A small number of people being treated with anti-epileptics such as carbamazepine have had thoughts of harming or killing themselves. If at any time you have these thoughts, immediately contact your doctor.</p><p>If an allergic reaction happens, such as swelling of lips, eyelids, face, throat, mouth, or sudden breathing problems, fever with lymph nodes swelling, rash or skin blistering, tell your doctor immediately or go to the emergency department at your nearest hospital (see “Possible side effects”).</p><p>Serious skin rashes (Stevens- Johnson syndrome, toxic epidermal necrolysis) have been reported with the use of carbamazepine. Frequently, the rash can involve ulcers of the mouth, throat, nose, genitals and conjunctivitis (red and swollen eyes). These serious skin rashes are often preceded by influenza-like symptoms fever, headache, body ache (flu-like symptoms). The rash may progress to widespread blistering and peeling of the skin. The highest risk for occurrence of serious skin reactions is within the first months of treatment.</p><p>These serious skin reactions can be more common in people from some Asian countries. The risk of these reactions in patients of Han Chinese or Thai origin may be predicted by testing a blood sample of these patients. Your doctor should be able to advise if a blood test is necessary before taking carbamazepine.</p><p>If you develop a rash or these skin symptoms, stop taking carbamazepine and contact your doctor immediately.</p><p>If you experience dizziness, drowsiness, decrease in blood pressure, confusion, due to Tegretol treatment, this may lead to falls.</p><p>You should also ask yourself these questions before taking Tegretol Tablets. If the answer to any of these questions is YES, discuss your treatment with your doctor or pharmacist because Tegretol Tablets might not be the right medicine for you.</p><ul><li>Are you pregnant or planning to become pregnant?</li><li>Are you breastfeeding?</li><li>Do you suffer from the sort of epilepsy where you get mixed seizures which include absences?</li><li>Do you have any mental illness?</li><li>Are you allergic to an epilepsy medicine called phenytoin, primidone or phenobarbital?</li><li>Do you have liver problems?</li><li>Do you have kidney problems associated with low sodium blood level or do you have kidney problems and you are taking certain medicines that lower sodium blood levels (diuretics such as hydrochlorothiazide, furosemide)?</li><li>Are you elderly?</li><li>Do you have any eye problems such as glaucoma (increased pressure in the eye) or do you have difficulty or pain when passing urine?</li></ul><h3>Are you taking other medicines?</h3><p>Because of the way that Tegretol works, it can affect, and be affected by, lots of other things that you might be eating or medicines that you are taking. It is very important to make sure that your doctor knows all about what else you are taking, including anything that you have bought from a chemist or health food shop. It may be necessary to change the dose of some medicines, or stop taking something altogether.</p><p>There is a risk of harm to the unborn child if Tegretol is used during pregnancy. Women of childbearing age should use effective contraception during treatment with Tegretol and for at least two weeks after the last dose (see the information in Section 2 on pregnancy and breastfeeding).</p><p>It is important to tell your doctor or pharmacist if you are taking any other medicines for epilepsy at the same time as carbamazepine and you are pregnant, think you may be pregnant, or are planning to have a baby (see the information in Section 2 on pregnancy and breastfeeding).</p><p>Tell the doctor if you are taking:</p><ul><li>Hormone contraceptives, e.g. pills, patches, injections or implants. Tegretol may affect how hormonal contraceptives work and make them less effective at preventing pregnancy. Talk to your doctor, who will discuss with you the most suitable type of contraception to use while you are taking Tegretol.</li><li>Hormone Replacement Therapy (HRT). Tegretol can make HRT less effective.</li><li>Any medicines for depression or anxiety.</li><li>Corticosteroids (‘steroids’). You might be taking these for inflammatory conditions such as asthma, inflammatory bowel disease, muscle and joint pains.</li><li>Anticoagulants to stop your blood clotting.</li><li>Antibiotics to treat infections including skin infections and TB (e.g. ciprofloxacillin).</li><li>Antifungals to treat fungal infections.</li><li>Painkillers containing paracetamol, dextropropoxyphene, tramadol, methadone or buprenorphine.</li><li>Other medicines to treat epilepsy (brivaracetam).</li><li>Medicines for high blood pressure or heart problems.</li><li>Antihistamines (medicines to treat allergy such as hayfever, itch, etc).</li><li>Diuretics (water tablets).</li><li>Cimetidine or omeprazole (medicines to treat gastric ulcers).</li><li>Isotretinoin (a medicine for the treatment of acne).</li><li>Metoclopramide or aprepitant (anti-sickness medications).</li><li>Acetazolamide (a medicine to treat glaucoma - increased pressure in the eye).</li><li>Danazol or gestrinone (treatments for endometriosis).</li><li>Theophylline or aminophylline (used in the treatment of asthma).</li><li>Ciclosporin, tacrolimus or sirolimus (immunosuppressants used after transplant operations, but also sometimes in the treatment of arthritis or psoriasis).</li><li>Drugs to treat schizophrenia (e.g. paliperidone, aripiprazole).</li><li>Cancer drugs (e.g. temsirolimus, cyclophasphamide, lapatinib).</li><li>The anti-malarial drug, mefloquine.</li><li>Drugs to treat HIV.</li><li>Levothyroxine (used to treat hypothyroidism).</li><li>Tadalafil (used to treat impotence).</li><li>Albendazole (used to treat worms).</li><li>Bupropion (used to help stop smoking).</li><li>A herbal remedy called St John’s Wort or Hypericum.</li><li>Drugs or supplements containing Vitamin B (nicotinamide).</li></ul><h3>Pregnancy, breastfeeding and fertility</h3><h4>Pregnancy</h4><p>If you are a woman who is able to have a baby and are not planning a pregnancy, you should use effective contraception during treatment with Tegretol. Tegretol may affect how hormonal contraceptives, such as the contraceptive (birth control) pill, work and make them less effective at preventing pregnancy. Talk to your doctor, who will discuss with you the most suitable type of contraception to use while you are taking Tegretol. If treatment with Tegretol is discontinued you should continue using effective contraception for at least two more weeks following discontinuation.</p><p>If you are pregnant, or think you may be pregnant, you must tell your doctor straight away and discuss possible risks the epilepsy medicine you are taking might pose to your unborn baby.</p><p>If you are planning to become pregnant you should discuss your epilepsy treatment with your doctor as early as possible before you become pregnant.</p><p>You should not stop your treatment without discussing this with your doctor. Suddenly stopping may lead to breakthrough seizures which may harm you and your unborn baby. It is important that your epilepsy remains well controlled.</p><p>Taking carbamazepine during pregnancy increases the chance that the baby may have a physical birth abnormality (major congenital malformations). Studies with women treated with carbamazepine for epilepsy have shown that on average 4-5 babies in every 100 will have serious physical birth abnormalities. This is compared with 2 to 3 babies in every 100 born to women who do not have epilepsy.</p><p>These abnormalities can develop early in pregnancy, even before you know you are pregnant. The most common types of major congenital malformations reported for carbamazepine include spina bifida (where the bones of the spine are not properly developed); facial and skull malformations including cleft lip/palate; skeletal, heart, urinary tract and sexual organ malformations.</p><p>Studies have found that the risk of physical birth abnormalities increases with increasing doses of carbamazepine. Therefore, it is important that where possible you are prescribed the lowest dose to control your epilepsy.</p><p>Ask your doctor about taking folic acid when trying for a baby and during pregnancy. Folic acid may lower the general risk of serious physical birth abnormalities that exists with all pregnancies.</p><p>Taking more than one epilepsy medicine at the same time may also increase the risk of physical birth abnormalities. This means that where possible, your doctor should consider using only one epilepsy medicine to control your epilepsy.</p><p>Problems with neurodevelopment (development of the brain) cannot be ruled out in children born to women with epilepsy treated with carbamazepine alone or in combination with other antiepileptic drugs during pregnancy.</p><p>If you take Tegretol during pregnancy, your baby is also at risk for bleeding problems right after birth. Your doctor may give you and your baby a medicine to prevent this.</p><h4>Breastfeeding</h4><p>Mothers taking Tegretol Tablets can breastfeed their babies, but you must tell the doctor as soon as possible if you think that the baby is suffering side effects such as excessive sleepiness, skin reaction or yellow skin and eyes, dark urine or pale stools.</p><h4>Fertility</h4><p>You should use an effective method of contraception throughout your treatment with Tegretol and for a period of 28 days after discontinuation of treatment. Irregularity of the menstrual period may occur in women taking hormonal contraceptives (birth control medicines) and Tegretol. The hormonal contraceptive may become less effective and you should consider using a different or additional non-hormonal contraceptive method. Ask your doctor about effective contraception.</p><h3>Will there be any problems with driving or using machinery?</h3><p>Tegretol Tablets can make you feel dizzy or drowsy, or may cause blurred vision, double vision, or you may have a lack of muscular coordination, especially at the start of treatment or when the dose is changed. If you are affected in this way, or if your eyesight is affected, you should not drive or operate machinery.</p><h3>Information about sodium content:</h3><p>This medicine contains less than 1mmol sodium (23mg) per tablet, that is to say essentially ‘sodium free’.</p><h3>Other special warnings</h3><ul><li>Drinking alcohol may affect you more than usual. Discuss whether you should stop drinking with your doctor.</li><li>Eating grapefruit, or drinking grapefruit juice, may increase your chance of experiencing side effects.</li><li>Your doctor may want you to have a number of blood tests before you start taking Tegretol and from time to time during your treatment. This is quite usual and nothing to worry about.</li></ul></div>
            </text>
          </section>
          <section>
            <title value="3. How to take Tegretol 200 mg  Tablets "/>
            <code>
              <coding>
                <system value="https://spor.ema.europa.eu/rmswi/"/>
                <code value="100000155538"/>
              </coding>
              <text value="3. How to take Tegretol 200 mg  Tablets "/>
            </code>
            <text>
              <status value="additional"/><div xmlns="http://www.w3.org/1999/xhtml"><p>The doctor will tell you how many Tegretol Tablets to take and when to take them. Always follow his/her instructions carefully. The dose will be on the pharmacist’s label. Check the label carefully. It is important to take the tablets at the right times. If you are not sure, ask your doctor or pharmacist. Keep taking your tablets for as long as you have been told, unless you have any problems. In that case, check with your doctor.</p><p>Your doctor will usually start Tegretol at a fairly low dose which can then be increased to suit you individually. The dose needed varies between patients. You can take Tegretol Tablets during, after or between meals. Swallow the tablets with a drink. You are usually told to take a dose two or three times a day. If necessary you may break the tablets in half along the scored line.</p><h3>To treat epilepsy the usual doses are:</h3><p>Adults: 800-1,200 mg a day, although higher doses may be necessary. If you are elderly you might require a lower dose.</p><h3>Children:</h3><p>Aged 5-10 years: 400-600 mg a day</p><p>Aged 10-15 years: 600-1,000 mg a day.</p><p>Tegretol Tablets are not recommended for children under 5.</p><h3>To treat trigeminal neuralgia the usual dose is:</h3><p>600-800 mg a day. The maximum dose is 1200mg a day. If you are elderly you might require a lower dose.</p><h3>To treat mood swings the usual dose is:</h3><p>400-600 mg a day</p><h3>What if you forget to take a dose?</h3><p>If you forget to take a dose, take one as soon as you remember. If it is nearly time for your next dose, though, just take the next dose and forget about the one you missed.</p><h3>What if you take too many tablets?</h3><p>If you accidentally take too many Tegretol Tablets, tell your doctor or your nearest hospital casualty department. Take your medicine pack with you so that people can see what you have taken.</p></div>
            </text>
          </section>
          <section>
            <title value="4. Possible side effects"/>
            <code>
              <coding>
                <system value="https://spor.ema.europa.eu/rmswi/"/>
                <code value="100000155538"/>
              </coding>
              <text value="4. Possible side effects"/>
            </code>
            <text>
              <status value="additional"/><div xmlns="http://www.w3.org/1999/xhtml"><p>Tegretol Tablets do not usually cause problems, but like all medicines, they can sometimes cause side effects.</p><h3>Some side effects can be serious</h3><p>Stop taking Tegretol Tablets and tell your doctor straight away if you notice:</p><ul><li>Serious skin reactions such as rash, red skin, blistering of the lips, eyes or mouth, or skin peeling accompanied by fever. These reactions may be more frequent in patients of Chinese or Thai origin</li><li>Mouth ulcers or unexplained bruising or bleeding</li><li>Sore throat or high temperature, or both</li><li>Yellowing of your skin or the whites of your eyes</li><li>Swollen ankles, feet or lower legs</li><li>Any signs of nervous illness or confusion</li><li>Pain in your joints and muscles, a rash across the bridge of the nose and cheeks and problems with breathing (these may be the signs of a rare reaction known as lupus erythematosus)</li><li>Fever, skin rash, joint pain, and abnormalities in blood and liver function tests (these may be the signs of a multi-organ sensitivity disorder)</li><li>Bronchospasm with wheezing and coughing, difficulty in breathing, feeling faint, rash, itching or facial swelling (these may be the signs of a severe allergic reaction)</li><li>Pain in the area near the stomach</li><li>You experience a fall due to dizziness, drowsiness, decrease in blood pressure, confusion.</li></ul><h3>The side effects listed below have also been reported:</h3><h4>Very common (may affect more than 1 in 10 people):</h4><ul><li>Leucopenia (a reduced number of the cells which fight infection making it easier to catch infections); dizziness and tiredness; feeling unsteady or finding it difficult to control movements; feeling or being sick; changes in liver enzyme levels (usually without any symptoms); skin reactions which may be severe.</li></ul><h4>Common (may affect up to 1 in 10 people):</h4><ul><li>Changes in the blood including an increased tendency to bruise or bleed; fluid retention and swelling; weight increase; low sodium in the blood which might result in confusion; headache; double or blurred vision; dry mouth.</li></ul><h4>Uncommon (may affect up to 1 in 100 people):</h4><ul><li>Abnormal involuntary movements including tremor or tics; abnormal eye movements; diarrhoea; constipation.</li></ul><h4>Rare (may affect up to 1 in 1,000 people):</h4><ul><li>Disease of the lymph glands; folic acid deficiency; a generalised allergic reaction including rash, joint pain, fever, problems with the kidneys and other organs; hallucinations; depression; loss of appetite; restlessness; aggression; agitation; confusion; speech disorders; numbness or tingling in the hands and feet; muscle weakness; high blood pressure (which may make you feel dizzy, with a flushed face, headache, fatigue and nervousness); low blood pressure (the symptoms of which are feeling faint, light headed, dizzy, confused, having blurred vision); changes to heart beat; stomach pain; liver problems including jaundice; symptoms of lupus.</li></ul><h4>Very rare (may affect up to 1 in 10,000 people):</h4><ul><li>Changes to the composition of the blood including anaemia; porphyria; meningitis; swelling of the breasts and discharge of milk which may occur in both male and females; abnormal thyroid function tests; osteomalacia (which may be noticed as pain on walking and bowing of the long bones in the legs); osteoporosis; increased blood fat levels; taste disturbances; conjunctivitis; glaucoma; cataracts; hearing disorders; heart and circulatory problems including deep vein thrombosis (DVT), the symptoms of which could include tenderness, pain, swelling, warmth, skin discoloration and prominent superficial veins; lung or breathing problems; severe skin reactions including Stevens-Johnson syndrome (These reactions may be more frequent in patients of Chinese or Thai origin); sore mouth or tongue; liver failure; increased sensitivity of the skin to sunlight; alterations in skin pigmentation; acne; excessive sweating; hair loss; increased hair growth on the body and face; muscle pain or spasm; sexual difficulties which may include reduced male fertility, loss of libido or impotence; kidney failure; blood spots in the urine; increased or decreased desire to pass urine or difficulty in passing urine.</li></ul><h4>Not known (frequency cannot be estimated from the available data):</h4><ul><li>Severe skin reactions, accompanied by feeling unwell and changes in blood results. Diarrhoea, abdominal pain, and fever (signs of inflammation of the colon), reactivation of herpes virus infection (can be serious when immune system is depressed), complete loss of nails, fracture, decrease in the measure of the bone density, drowsiness, memory loss, purple or reddish-purple bumps that may be itchy, high levels of ammonia in the blood (hyperammonaemia). The symptoms of hyperammonaemia may include irritability, confusion, vomiting, loss of appetite, and sleepiness.</li></ul><p>Do not be alarmed by this list. Most people take Tegretol Tablets without any problems.</p><p>If any of the symptoms become troublesome, or if you notice anything else not mentioned here, please go and see your doctor. He/she may want to give you a different medicine.</p><p>There have been reports of bone disorders including osteopenia and osteoporosis (thinning of the bone) and fractures. Check with your doctor or pharmacist if you are on long-term antiepileptic medication, have a history of osteoporosis, or take steroids.</p><h3>Reporting of side effects</h3><p>If you get any side effects, talk to your doctor or pharmacist. This includes any possible side effects not listed in this leaflet. You can also report side effects directly via the Yellow Card Scheme at: <a href="http://www.mhra.gov.uk/yellowcard" target="_blank">www.mhra.gov.uk/yellowcard</a> or search for MHRA Yellow Card in the Google Play or Apple App Store. By reporting side effects you can help provide more information on the safety of this medicine.</p></div>
            </text>
          </section>
          <section>
            <title value="5. How to store Tegretol 200 mg  Tablets "/>
            <code>
              <coding>
                <system value="https://spor.ema.europa.eu/rmswi/"/>
                <code value="100000155538"/>
              </coding>
              <text value="5. How to store Tegretol 200 mg  Tablets "/>
            </code>
            <text>
              <status value="additional"/><div xmlns="http://www.w3.org/1999/xhtml"><ul><li>Do not store above 25°C.</li><li>Store in the original package in order to protect from moisture.</li><li>Keep out of the sight and reach of children.</li><li>Do not take Tegretol Tablets after the expiry date which is printed on the outside of the pack.</li><li>If your doctor tells you to stop taking the tablets, please take any unused tablets back to your pharmacist to be destroyed. Do not throw them away with your normal household water or waste. This will help to protect the environment.</li></ul></div>
            </text>
          </section>
          <section>
            <title value="6. Contents of the pack and other information"/>
            <code>
              <coding>
                <system value="https://spor.ema.europa.eu/rmswi/"/>
                <code value="100000155538"/>
              </coding>
              <text value="6. Contents of the pack and other information"/>
            </code>
            <text>
              <status value="additional"/><div xmlns="http://www.w3.org/1999/xhtml"><p>The tablets come in three strengths containing either 100, 200 or 400 mg of the active ingredient carbamazepine. The tablets also contain the inactive ingredients silicon dioxide, microcrystalline cellulose, magnesium stearate and sodium carboxymethylcellulose.</p><p>Tegretol 100 Tablets are round, white tablets with one side impressed “GEIGY”, the other “B/W” and a score line.</p><p>Tegretol 200 Tablets are round, white tablets with one side impressed “CG”, the other “G/K” and a score line.</p><p>The 100 mg and 200 mg tablets come in blister packs of 84.</p><p>Tegretol 400 mg Tablets are rod-shaped, white tablets with CG/CG on one side and LR/LR on the other. Both sides have a score line.</p><p>The 400 mg tablets come in blister packs of 56.</p><p>Marketing Authorisation Holder: Novartis Pharmaceuticals UK Limited, 2nd Floor, The WestWorks Building, White City Place, 195 Wood Lane, London, W12 7FQ, United Kingdom.</p><p>Manufacturer: Novartis Pharmaceuticals UK Limited, 2nd Floor, The WestWorks Building, White City Place, 195 Wood Lane, London, W12 7FQ, United Kingdom and Novartis Farma S.p.A., Via Provinciale Schito. 131, 80058 Torre Annunziata (NA), Italy.</p><p>This leaflet was last revised in 11/2023.</p><p>If you would like any more information, or would like the leaflet in a different format, please contact Medical Information at Novartis Pharmaceuticals UK Ltd, telephone number 01276 698370.</p><p>TEGRETOL is a registered trade mark</p><p>Copyright Novartis Pharmaceuticals UK Limited</p></div>
            </text>
          </section>
        </section>
      </Composition>
    </resource>
  </entry>
  <entry>
    <fullUrl value="http://hl7.eu/fhir/ig/gravitate-health/Ingredient/ingredient-for-tegretol-carbamazepine"/>
    <resource>
      <Ingredient>
        <id value="ingredient-for-tegretol-carbamazepine"/>
        <meta>
          <profile value="http://hl7.org/fhir/uv/emedicinal-product-info/StructureDefinition/Ingredient-uv-epi"/>
        </meta>
        <text>
          <status value="generated"/><div xmlns="http://www.w3.org/1999/xhtml"><a name="Ingredient_ingredient-for-tegretol-carbamazepine"> </a><p class="res-header-id"><b>Generated Narrative: Ingredient ingredient-for-tegretol-carbamazepine</b></p><a name="ingredient-for-tegretol-carbamazepine"> </a><a name="hcingredient-for-tegretol-carbamazepine"> </a><a name="ingredient-for-tegretol-carbamazepine-en-US"> </a><p><b>identifier</b>: <code>https://gsrs.ncats.nih.gov/ginas/app/beta</code>/33CM23913M (use: official, )</p><p><b>status</b>: Active</p><p><b>for</b>: </p><ul><li><a href="Bundle-bundlepackageleaflet-en-2f37d696067eeb6daf1111cfc3272672.html#ManufacturedItemDefinition_mid-2f37d696067eeb6daf1111cfc3272672">Bundle: identifier = https://www.gravitatehealth.eu/sid/doc#39.955; type = document; timestamp = 2023-06-27 10:09:22+0000</a></li><li><a href="Bundle-bundlepackageleaflet-en-2f37d696067eeb6daf1111cfc3272672.html#MedicinalProductDefinition_mpac2bb08bb4cc3f51f8c4e3513034c019">Bundle: identifier = https://www.gravitatehealth.eu/sid/doc#39.955; type = document; timestamp = 2023-06-27 10:09:22+0000</a></li><li><a href="Bundle-bundlepackageleaflet-en-2f37d696067eeb6daf1111cfc3272672.html#AdministrableProductDefinition_ap-2f37d696067eeb6daf1111cfc3272672">Bundle: identifier = https://www.gravitatehealth.eu/sid/doc#39.955; type = document; timestamp = 2023-06-27 10:09:22+0000</a></li></ul><p><b>role</b>: <span title="Codes:{https://spor.ema.europa.eu/rmswi 72072}">active</span></p><blockquote><p><b>substance</b></p><h3>Codes</h3><table class="grid"><tr><td style="display: none">-</td><td><b>Concept</b></td></tr><tr><td style="display: none">*</td><td><span title="Codes:{https://gsrs.ncats.nih.gov/ginas/app/beta 33CM23913M}">CARBAMAZEPINE</span></td></tr></table><h3>Strengths</h3><table class="grid"><tr><td style="display: none">-</td><td><b>Presentation[x]</b></td><td><b>Basis</b></td></tr><tr><td style="display: none">*</td><td>120 mg<span style="background: LightGoldenRodYellow"> (Details: UCUM  codemg = 'mg')</span></td><td><span title="Codes:{http://terminology.hl7.org/CodeSystem/v3-RoleClass ACTIB}">active ingredient - basis of strength</span></td></tr></table></blockquote></div>
        </text>
        <identifier>
          <use value="official"/>
          <system value="https://gsrs.ncats.nih.gov/ginas/app/beta"/>
          <value value="33CM23913M"/>
        </identifier>
        <status value="active"/>
        <for>
          <reference value="ManufacturedItemDefinition/mid-2f37d696067eeb6daf1111cfc3272672"/>
        </for>
        <for>
          <reference value="MedicinalProductDefinition/mpac2bb08bb4cc3f51f8c4e3513034c019"/>
        </for>
        <for>
          <reference value="AdministrableProductDefinition/ap-2f37d696067eeb6daf1111cfc3272672"/>
        </for>
        <role>
          <coding>
            <system value="https://spor.ema.europa.eu/rmswi"/>
            <code value="72072"/>
            <display value="active"/>
          </coding>
        </role>
        <substance>
          <code>
            <concept>
              <coding>
                <system value="https://gsrs.ncats.nih.gov/ginas/app/beta"/>
                <code value="33CM23913M"/>
                <display value="CARBAMAZEPINE"/>
              </coding>
            </concept>
          </code>
          <strength>
            <presentationQuantity>
              <value value="120"/>
              <system value="http://unitsofmeasure.org"/>
              <code value="mg"/>
            </presentationQuantity>
            <basis>
              <coding>
                <system value="http://terminology.hl7.org/CodeSystem/v3-RoleClass"/>
                <code value="ACTIB"/>
                <display value="active ingredient - basis of strength"/>
              </coding>
            </basis>
          </strength>
        </substance>
      </Ingredient>
    </resource>
  </entry>
  <entry>
    <fullUrl value="http://hl7.eu/fhir/ig/gravitate-health/Ingredient/ingredient-for-tegretol-magnesiumstearate"/>
    <resource>
      <Ingredient>
        <id value="ingredient-for-tegretol-magnesiumstearate"/>
        <meta>
          <profile value="http://hl7.org/fhir/uv/emedicinal-product-info/StructureDefinition/Ingredient-uv-epi"/>
        </meta>
        <text>
          <status value="generated"/><div xmlns="http://www.w3.org/1999/xhtml"><a name="Ingredient_ingredient-for-tegretol-magnesiumstearate"> </a><p class="res-header-id"><b>Generated Narrative: Ingredient ingredient-for-tegretol-magnesiumstearate</b></p><a name="ingredient-for-tegretol-magnesiumstearate"> </a><a name="hcingredient-for-tegretol-magnesiumstearate"> </a><a name="ingredient-for-tegretol-magnesiumstearate-en-US"> </a><p><b>identifier</b>: <code>https://gsrs.ncats.nih.gov/ginas/app/beta</code>/70097M6I30 (use: official, )</p><p><b>status</b>: Active</p><p><b>for</b>: </p><ul><li><a href="Bundle-bundlepackageleaflet-en-2f37d696067eeb6daf1111cfc3272672.html#ManufacturedItemDefinition_mid-2f37d696067eeb6daf1111cfc3272672">Bundle: identifier = https://www.gravitatehealth.eu/sid/doc#39.955; type = document; timestamp = 2023-06-27 10:09:22+0000</a></li><li><a href="Bundle-bundlepackageleaflet-en-2f37d696067eeb6daf1111cfc3272672.html#MedicinalProductDefinition_mpac2bb08bb4cc3f51f8c4e3513034c019">Bundle: identifier = https://www.gravitatehealth.eu/sid/doc#39.955; type = document; timestamp = 2023-06-27 10:09:22+0000</a></li><li><a href="Bundle-bundlepackageleaflet-en-2f37d696067eeb6daf1111cfc3272672.html#AdministrableProductDefinition_ap-2f37d696067eeb6daf1111cfc3272672">Bundle: identifier = https://www.gravitatehealth.eu/sid/doc#39.955; type = document; timestamp = 2023-06-27 10:09:22+0000</a></li></ul><p><b>role</b>: <span title="Codes:{https://spor.ema.europa.eu/rmswi 100000072082}">Excipient</span></p><blockquote><p><b>substance</b></p><h3>Codes</h3><table class="grid"><tr><td style="display: none">-</td><td><b>Concept</b></td></tr><tr><td style="display: none">*</td><td><span title="Codes:{https://gsrs.ncats.nih.gov/ginas/app/beta 70097M6I30}">Magnesium stearate</span></td></tr></table></blockquote></div>
        </text>
        <identifier>
          <use value="official"/>
          <system value="https://gsrs.ncats.nih.gov/ginas/app/beta"/>
          <value value="70097M6I30"/>
        </identifier>
        <status value="active"/>
        <for>
          <reference value="ManufacturedItemDefinition/mid-2f37d696067eeb6daf1111cfc3272672"/>
        </for>
        <for>
          <reference value="MedicinalProductDefinition/mpac2bb08bb4cc3f51f8c4e3513034c019"/>
        </for>
        <for>
          <reference value="AdministrableProductDefinition/ap-2f37d696067eeb6daf1111cfc3272672"/>
        </for>
        <role>
          <coding>
            <system value="https://spor.ema.europa.eu/rmswi"/>
            <code value="100000072082"/>
            <display value="Excipient"/>
          </coding>
        </role>
        <substance>
          <code>
            <concept>
              <coding>
                <system value="https://gsrs.ncats.nih.gov/ginas/app/beta"/>
                <code value="70097M6I30"/>
                <display value="Magnesium stearate"/>
              </coding>
            </concept>
          </code>
        </substance>
      </Ingredient>
    </resource>
  </entry>
  <entry>
    <fullUrl value="http://hl7.eu/fhir/ig/gravitate-health/Ingredient/ingredient-for-tegretol-carboxymethylcellulose"/>
    <resource>
      <Ingredient>
        <id value="ingredient-for-tegretol-carboxymethylcellulose"/>
        <meta>
          <profile value="http://hl7.org/fhir/uv/emedicinal-product-info/StructureDefinition/Ingredient-uv-epi"/>
        </meta>
        <text>
          <status value="generated"/><div xmlns="http://www.w3.org/1999/xhtml"><a name="Ingredient_ingredient-for-tegretol-carboxymethylcellulose"> </a><p class="res-header-id"><b>Generated Narrative: Ingredient ingredient-for-tegretol-carboxymethylcellulose</b></p><a name="ingredient-for-tegretol-carboxymethylcellulose"> </a><a name="hcingredient-for-tegretol-carboxymethylcellulose"> </a><a name="ingredient-for-tegretol-carboxymethylcellulose-en-US"> </a><p><b>identifier</b>: <code>https://gsrs.ncats.nih.gov/ginas/app/beta</code>/05JZI7B19X (use: official, )</p><p><b>status</b>: Active</p><p><b>for</b>: </p><ul><li><a href="Bundle-bundlepackageleaflet-en-2f37d696067eeb6daf1111cfc3272672.html#ManufacturedItemDefinition_mid-2f37d696067eeb6daf1111cfc3272672">Bundle: identifier = https://www.gravitatehealth.eu/sid/doc#39.955; type = document; timestamp = 2023-06-27 10:09:22+0000</a></li><li><a href="Bundle-bundlepackageleaflet-en-2f37d696067eeb6daf1111cfc3272672.html#MedicinalProductDefinition_mpac2bb08bb4cc3f51f8c4e3513034c019">Bundle: identifier = https://www.gravitatehealth.eu/sid/doc#39.955; type = document; timestamp = 2023-06-27 10:09:22+0000</a></li><li><a href="Bundle-bundlepackageleaflet-en-2f37d696067eeb6daf1111cfc3272672.html#AdministrableProductDefinition_ap-2f37d696067eeb6daf1111cfc3272672">Bundle: identifier = https://www.gravitatehealth.eu/sid/doc#39.955; type = document; timestamp = 2023-06-27 10:09:22+0000</a></li></ul><p><b>role</b>: <span title="Codes:{https://spor.ema.europa.eu/rmswi 100000072082}">Excipient</span></p><blockquote><p><b>substance</b></p><h3>Codes</h3><table class="grid"><tr><td style="display: none">-</td><td><b>Concept</b></td></tr><tr><td style="display: none">*</td><td><span title="Codes:{https://gsrs.ncats.nih.gov/ginas/app/beta 05JZI7B19X}">CARBOXYMETHYLCELLULOSE</span></td></tr></table></blockquote></div>
        </text>
        <identifier>
          <use value="official"/>
          <system value="https://gsrs.ncats.nih.gov/ginas/app/beta"/>
          <value value="05JZI7B19X"/>
        </identifier>
        <status value="active"/>
        <for>
          <reference value="ManufacturedItemDefinition/mid-2f37d696067eeb6daf1111cfc3272672"/>
        </for>
        <for>
          <reference value="MedicinalProductDefinition/mpac2bb08bb4cc3f51f8c4e3513034c019"/>
        </for>
        <for>
          <reference value="AdministrableProductDefinition/ap-2f37d696067eeb6daf1111cfc3272672"/>
        </for>
        <role>
          <coding>
            <system value="https://spor.ema.europa.eu/rmswi"/>
            <code value="100000072082"/>
            <display value="Excipient"/>
          </coding>
        </role>
        <substance>
          <code>
            <concept>
              <coding>
                <system value="https://gsrs.ncats.nih.gov/ginas/app/beta"/>
                <code value="05JZI7B19X"/>
                <display value="CARBOXYMETHYLCELLULOSE"/>
              </coding>
            </concept>
          </code>
        </substance>
      </Ingredient>
    </resource>
  </entry>
  <entry>
    <fullUrl value="http://hl7.eu/fhir/ig/gravitate-health/SubstanceDefinition/substance-carbamazepine"/>
    <resource>
      <SubstanceDefinition>
        <id value="substance-carbamazepine"/>
        <meta>
          <profile value="http://hl7.org/fhir/uv/emedicinal-product-info/StructureDefinition/SubstanceDefinition-uv-epi"/>
        </meta>
        <text>
          <status value="generated"/><div xmlns="http://www.w3.org/1999/xhtml"><a name="SubstanceDefinition_substance-carbamazepine"> </a><p class="res-header-id"><b>Generated Narrative: SubstanceDefinition substance-carbamazepine</b></p><a name="substance-carbamazepine"> </a><a name="hcsubstance-carbamazepine"> </a><a name="substance-carbamazepine-en-US"> </a><p><b>identifier</b>: <code>https://gsrs.ncats.nih.gov/ginas/app/beta/</code>/33CM23913M (use: official, )</p><p><b>version</b>: 1</p><p><b>status</b>: <span title="Codes:{http://hl7.org/fhir/publication-status active}">Active</span></p><p><b>manufacturer</b>: <a href="Bundle-bundlepackageleaflet-en-2f37d696067eeb6daf1111cfc3272672.html#Organization_mah-990eca26437774887062cfa11ea1d904">Bundle: identifier = https://www.gravitatehealth.eu/sid/doc#39.955; type = document; timestamp = 2023-06-27 10:09:22+0000</a></p><h3>MolecularWeights</h3><table class="grid"><tr><td style="display: none">-</td><td><b>Type</b></td><td><b>Amount</b></td></tr><tr><td style="display: none">*</td><td><span title="Codes:">exact</span></td><td>236.27</td></tr></table><h3>Structures</h3><table class="grid"><tr><td style="display: none">-</td><td><b>MolecularFormula</b></td></tr><tr><td style="display: none">*</td><td>C15H12N2O</td></tr></table><h3>Names</h3><table class="grid"><tr><td style="display: none">-</td><td><b>Name</b></td><td><b>Type</b></td></tr><tr><td style="display: none">*</td><td>5H-DIBENZ(B,F)AZEPINE-5-CARBOXAMIDE</td><td><span title="Codes:{https://gsrs.ncats.nih.gov/ginas/app/beta/ x}">Chemical Name</span></td></tr></table></div>
        </text>
        <identifier>
          <use value="official"/>
          <system value="https://gsrs.ncats.nih.gov/ginas/app/beta/"/>
          <value value="33CM23913M"/>
        </identifier>
        <version value="1"/>
        <status>
          <coding>
            <system value="http://hl7.org/fhir/publication-status"/>
            <code value="active"/>
          </coding>
        </status>
        <manufacturer>
          <reference value="Organization/mah-990eca26437774887062cfa11ea1d904"/>
        </manufacturer>
        <molecularWeight>
          <type>
            <text value="exact"/>
          </type>
          <amount>
            <value value="236.27"/>
          </amount>
        </molecularWeight>
        <structure>
          <molecularFormula value="C15H12N2O"/>
        </structure>
        <name>
          <name value="5H-DIBENZ(B,F)AZEPINE-5-CARBOXAMIDE"/>
          <type>
            <coding>
              <system value="https://gsrs.ncats.nih.gov/ginas/app/beta/"/>
              <code value="x"/>
              <display value="Chemical Name"/>
            </coding>
          </type>
        </name>
      </SubstanceDefinition>
    </resource>
  </entry>
  <entry>
    <fullUrl value="http://hl7.eu/fhir/ig/gravitate-health/AdministrableProductDefinition/ap-2f37d696067eeb6daf1111cfc3272672"/>
    <resource>
      <AdministrableProductDefinition>
        <id value="ap-2f37d696067eeb6daf1111cfc3272672"/>
        <meta>
          <profile value="http://hl7.org/fhir/uv/emedicinal-product-info/StructureDefinition/AdministrableProductDefinition-uv-epi"/>
        </meta>
        <text>
          <status value="generated"/><div xmlns="http://www.w3.org/1999/xhtml"><a name="AdministrableProductDefinition_ap-2f37d696067eeb6daf1111cfc3272672"> </a><p class="res-header-id"><b>Generated Narrative: AdministrableProductDefinition ap-2f37d696067eeb6daf1111cfc3272672</b></p><a name="ap-2f37d696067eeb6daf1111cfc3272672"> </a><a name="hcap-2f37d696067eeb6daf1111cfc3272672"> </a><a name="ap-2f37d696067eeb6daf1111cfc3272672-en-US"> </a><p><b>identifier</b>: <code>https://spor.ema.europa.eu/pmswi</code>/EU/1/98/071/004</p><p><b>status</b>: Active</p><p><b>formOf</b>: <a href="Bundle-bundlepackageleaflet-en-2f37d696067eeb6daf1111cfc3272672.html#MedicinalProductDefinition_mpac2bb08bb4cc3f51f8c4e3513034c019">Bundle: identifier = https://www.gravitatehealth.eu/sid/doc#39.955; type = document; timestamp = 2023-06-27 10:09:22+0000</a></p><p><b>administrableDoseForm</b>: <span title="Codes:{https://spor.ema.europa.eu/rmswi 200000002152}">tablet</span></p><p><b>unitOfPresentation</b>: <span title="Codes:{https://spor.ema.europa.eu/rmswi 200000002152}">tablet</span></p><p><b>producedFrom</b>: <a href="Bundle-bundlepackageleaflet-en-2f37d696067eeb6daf1111cfc3272672.html#ManufacturedItemDefinition_mid-2f37d696067eeb6daf1111cfc3272672">Bundle: identifier = https://www.gravitatehealth.eu/sid/doc#39.955; type = document; timestamp = 2023-06-27 10:09:22+0000</a></p><blockquote><p><b>routeOfAdministration</b></p><p><b>code</b>: <span title="Codes:{https://spor.ema.europa.eu/rmswi 100000073619}">Oral use</span></p><h3>TargetSpecies</h3><table class="grid"><tr><td style="display: none">-</td><td><b>Code</b></td></tr><tr><td style="display: none">*</td><td><span title="Codes:{https://spor.ema.europa.eu/rmswi 100000109093}">Human</span></td></tr></table></blockquote></div>
        </text>
        <identifier>
          <system value="https://spor.ema.europa.eu/pmswi"/>
          <value value="EU/1/98/071/004"/>
        </identifier>
        <status value="active"/>
        <formOf>
          <reference value="MedicinalProductDefinition/mpac2bb08bb4cc3f51f8c4e3513034c019"/>
        </formOf>
        <administrableDoseForm>
          <coding>
            <system value="https://spor.ema.europa.eu/rmswi"/>
            <code value="200000002152"/>
            <display value="tablet"/>
          </coding>
        </administrableDoseForm>
        <unitOfPresentation>
          <coding>
            <system value="https://spor.ema.europa.eu/rmswi"/>
            <code value="200000002152"/>
            <display value="tablet"/>
          </coding>
        </unitOfPresentation>
        <producedFrom>
          <reference value="ManufacturedItemDefinition/mid-2f37d696067eeb6daf1111cfc3272672"/>
        </producedFrom>
        <routeOfAdministration>
          <code>
            <coding>
              <system value="https://spor.ema.europa.eu/rmswi"/>
              <code value="100000073619"/>
              <display value="Oral use"/>
            </coding>
          </code>
          <targetSpecies>
            <code>
              <coding>
                <system value="https://spor.ema.europa.eu/rmswi"/>
                <code value="100000109093"/>
                <display value="Human"/>
              </coding>
            </code>
          </targetSpecies>
        </routeOfAdministration>
      </AdministrableProductDefinition>
    </resource>
  </entry>
  <entry>
    <fullUrl value="http://hl7.eu/fhir/ig/gravitate-health/RegulatedAuthorization/authorization2f37d696067eeb6daf1111cfc32726720"/>
    <resource>
      <RegulatedAuthorization>
        <id value="authorization2f37d696067eeb6daf1111cfc32726720"/>
        <meta>
          <profile value="http://hl7.org/fhir/uv/emedicinal-product-info/StructureDefinition/RegulatedAuthorization-uv-epi"/>
        </meta>
        <text>
          <status value="generated"/><div xmlns="http://www.w3.org/1999/xhtml"><a name="RegulatedAuthorization_authorization2f37d696067eeb6daf1111cfc32726720"> </a><p class="res-header-id"><b>Generated Narrative: RegulatedAuthorization authorization2f37d696067eeb6daf1111cfc32726720</b></p><a name="authorization2f37d696067eeb6daf1111cfc32726720"> </a><a name="hcauthorization2f37d696067eeb6daf1111cfc32726720"> </a><a name="authorization2f37d696067eeb6daf1111cfc32726720-en-US"> </a><p><b>identifier</b>: <code>https://spor.ema.europa.eu/pmswi</code>/39.955 (use: official, )</p><p><b>subject</b>: <a href="Bundle-bundlepackageleaflet-en-2f37d696067eeb6daf1111cfc3272672.html#MedicinalProductDefinition_mpac2bb08bb4cc3f51f8c4e3513034c019">Bundle: identifier = https://www.gravitatehealth.eu/sid/doc#39.955; type = document; timestamp = 2023-06-27 10:09:22+0000</a></p><p><b>type</b>: <span title="Codes:{https://spor.ema.europa.eu/rmswi 100000072062}">Marketing Authorisation</span></p><p><b>status</b>: <span title="Codes:{http://hl7.org/fhir/publication-status active}">Active</span></p><p><b>statusDate</b>: 2018-06-21</p><p><b>holder</b>: <a href="Bundle-bundlepackageleaflet-en-2f37d696067eeb6daf1111cfc3272672.html#Organization_mah-990eca26437774887062cfa11ea1d904">Bundle: identifier = https://www.gravitatehealth.eu/sid/doc#39.955; type = document; timestamp = 2023-06-27 10:09:22+0000</a></p></div>
        </text>
        <identifier>
          <use value="official"/>
          <system value="https://spor.ema.europa.eu/pmswi"/>
          <value value="39.955"/>
        </identifier>
        <subject>
          <reference value="MedicinalProductDefinition/mpac2bb08bb4cc3f51f8c4e3513034c019"/>
        </subject>
        <type>
          <coding>
            <system value="https://spor.ema.europa.eu/rmswi"/>
            <code value="100000072062"/>
            <display value="Marketing Authorisation"/>
          </coding>
        </type>
        <status>
          <coding>
            <system value="http://hl7.org/fhir/publication-status"/>
            <code value="active"/>
            <display value="Active"/>
          </coding>
        </status>
        <statusDate value="2018-06-21"/>
        <holder>
          <reference value="Organization/mah-990eca26437774887062cfa11ea1d904"/>
        </holder>
      </RegulatedAuthorization>
    </resource>
  </entry>
  <entry>
    <fullUrl value="http://hl7.eu/fhir/ig/gravitate-health/Organization/mah-990eca26437774887062cfa11ea1d904"/>
    <resource>
      <Organization>
        <id value="mah-990eca26437774887062cfa11ea1d904"/>
        <meta>
          <profile value="http://hl7.org/fhir/uv/emedicinal-product-info/StructureDefinition/Organization-uv-epi"/>
        </meta>
        <text>
          <status value="generated"/><div xmlns="http://www.w3.org/1999/xhtml"><a name="Organization_mah-990eca26437774887062cfa11ea1d904"> </a><p class="res-header-id"><b>Generated Narrative: Organization mah-990eca26437774887062cfa11ea1d904</b></p><a name="mah-990eca26437774887062cfa11ea1d904"> </a><a name="hcmah-990eca26437774887062cfa11ea1d904"> </a><a name="mah-990eca26437774887062cfa11ea1d904-en-US"> </a><p><b>identifier</b>: <code>https://spor.ema.europa.eu/omswi</code>/ORG-100001650 (use: official, )</p><p><b>active</b>: true</p><p><b>type</b>: <span title="Codes:{https://spor.ema.europa.eu/rmswi 220000000034}">Marketing authorisation holder</span></p><p><b>name</b>: Novartis Farmacéutica, S.A.</p><h3>Contacts</h3><table class="grid"><tr><td style="display: none">-</td><td><b>Address</b></td></tr><tr><td style="display: none">*</td><td>Gran Via de les Corts Catalanes, 764 barcelona Spain(work)</td></tr></table></div>
        </text>
        <identifier>
          <use value="official"/>
          <system value="https://spor.ema.europa.eu/omswi"/>
          <value value="ORG-100001650"/>
        </identifier>
        <active value="true"/>
        <type>
          <coding>
            <system value="https://spor.ema.europa.eu/rmswi"/>
            <code value="220000000034"/>
            <display value="Marketing authorisation holder"/>
          </coding>
        </type>
        <name value="Novartis Farmacéutica, S.A."/>
        <contact>
          <address>
            <use value="work"/>
            <type value="physical"/>
            <text value="Gran Via de les Corts Catalanes, 764 barcelona Spain"/>
            <line value="Gran Via de les Corts Catalanes, 764"/>
            <city value="barcelona"/>
            <postalCode value="8013"/>
            <country value="Spain"/>
          </address>
        </contact>
      </Organization>
    </resource>
  </entry>
  <entry>
    <fullUrl value="http://hl7.eu/fhir/ig/gravitate-health/PackagedProductDefinition/ppd-1618faf0346b4539ed1e3d6b23353e60"/>
    <resource>
      <PackagedProductDefinition>
        <id value="ppd-1618faf0346b4539ed1e3d6b23353e60"/>
        <meta>
          <profile value="http://hl7.org/fhir/uv/emedicinal-product-info/StructureDefinition/PackagedProductDefinition-uv-epi"/>
        </meta>
        <text>
          <status value="generated"/><div xmlns="http://www.w3.org/1999/xhtml"><a name="PackagedProductDefinition_ppd-1618faf0346b4539ed1e3d6b23353e60"> </a><p class="res-header-id"><b>Generated Narrative: PackagedProductDefinition ppd-1618faf0346b4539ed1e3d6b23353e60</b></p><a name="ppd-1618faf0346b4539ed1e3d6b23353e60"> </a><a name="hcppd-1618faf0346b4539ed1e3d6b23353e60"> </a><a name="ppd-1618faf0346b4539ed1e3d6b23353e60-en-US"> </a><p><b>identifier</b>: <code>https://spor.ema.europa.eu/pmswi</code>/39.955 (use: official, )</p><p><b>name</b>: Tegretol 200 mg tablets 28</p><p><b>type</b>: <span title="Codes:{https://spor.ema.europa.eu/rmswi 100000155527}">Chemical Medicinal Prodcut</span></p><p><b>packageFor</b>: <a href="Bundle-bundlepackageleaflet-en-2f37d696067eeb6daf1111cfc3272672.html#MedicinalProductDefinition_mpac2bb08bb4cc3f51f8c4e3513034c019">Bundle: identifier = https://www.gravitatehealth.eu/sid/doc#39.955; type = document; timestamp = 2023-06-27 10:09:22+0000</a></p><p><b>status</b>: <span title="Codes:{http://hl7.org/fhir/publication-status active}">Active</span></p><p><b>statusDate</b>: 2012-02-07 13:28:17+0000</p><p><b>containedItemQuantity</b>: 50 {tablets}<span style="background: LightGoldenRodYellow"> (Details: UCUM  code{tablets} = '{tablets}')</span></p><blockquote><p><b>packaging</b></p><p><b>type</b>: <span title="Codes:{https://spor.ema.europa.eu/rmswi 100000073498}">Box</span></p><p><b>quantity</b>: 1</p><p><b>material</b>: <span title="Codes:{https://spor.ema.europa.eu/rmswi 200000003529}">Cardboard</span></p><blockquote><p><b>packaging</b></p><p><b>identifier</b>: <code>https://spor.ema.europa.eu/pmswi</code>/168740</p><p><b>type</b>: <span title="Codes:{https://spor.ema.europa.eu/rmswi 100000073496}">Blister</span></p><p><b>quantity</b>: 28</p><p><b>material</b>: <span title="Codes:{https://spor.ema.europa.eu/rmswi 200000003222}">PolyVinyl Chloride</span></p><blockquote><p><b>containedItem</b></p><h3>Items</h3><table class="grid"><tr><td style="display: none">-</td><td><b>Reference</b></td></tr><tr><td style="display: none">*</td><td><a href="Bundle-bundlepackageleaflet-en-2f37d696067eeb6daf1111cfc3272672.html#ManufacturedItemDefinition_mid-2f37d696067eeb6daf1111cfc3272672">Bundle: identifier = https://www.gravitatehealth.eu/sid/doc#39.955; type = document; timestamp = 2023-06-27 10:09:22+0000</a></td></tr></table></blockquote></blockquote></blockquote></div>
        </text>
        <identifier>
          <use value="official"/>
          <system value="https://spor.ema.europa.eu/pmswi"/>
          <value value="39.955"/>
        </identifier>
        <name value="Tegretol 200 mg tablets 28"/>
        <type>
          <coding>
            <system value="https://spor.ema.europa.eu/rmswi"/>
            <code value="100000155527"/>
            <display value="Chemical Medicinal Prodcut"/>
          </coding>
        </type>
        <packageFor>
          <reference value="MedicinalProductDefinition/mpac2bb08bb4cc3f51f8c4e3513034c019"/>
        </packageFor>
        <status>
          <coding>
            <system value="http://hl7.org/fhir/publication-status"/>
            <code value="active"/>
            <display value="Active"/>
          </coding>
        </status>
        <statusDate value="2012-02-07T13:28:17Z"/>
        <containedItemQuantity>
          <value value="50"/>
          <system value="http://unitsofmeasure.org"/>
          <code value="{tablets}"/>
        </containedItemQuantity>
        <packaging>
          <type>
            <coding>
              <system value="https://spor.ema.europa.eu/rmswi"/>
              <code value="100000073498"/>
              <display value="Box"/>
            </coding>
          </type>
          <quantity value="1"/>
          <material>
            <coding>
              <system value="https://spor.ema.europa.eu/rmswi"/>
              <code value="200000003529"/>
              <display value="Cardboard"/>
            </coding>
          </material>
          <packaging>
            <identifier>
              <system value="https://spor.ema.europa.eu/pmswi"/>
              <value value="168740"/>
            </identifier>
            <type>
              <coding>
                <system value="https://spor.ema.europa.eu/rmswi"/>
                <code value="100000073496"/>
                <display value="Blister"/>
              </coding>
            </type>
            <quantity value="28"/>
            <material>
              <coding>
                <system value="https://spor.ema.europa.eu/rmswi"/>
                <code value="200000003222"/>
                <display value="PolyVinyl Chloride"/>
              </coding>
            </material>
            <containedItem>
              <item>
                <reference>
                  <reference value="ManufacturedItemDefinition/mid-2f37d696067eeb6daf1111cfc3272672"/>
                </reference>
              </item>
            </containedItem>
          </packaging>
        </packaging>
      </PackagedProductDefinition>
    </resource>
  </entry>
  <entry>
    <fullUrl value="http://hl7.eu/fhir/ig/gravitate-health/MedicinalProductDefinition/mpac2bb08bb4cc3f51f8c4e3513034c019"/>
    <resource>
      <MedicinalProductDefinition>
        <id value="mpac2bb08bb4cc3f51f8c4e3513034c019"/>
        <meta>
          <profile value="http://hl7.org/fhir/uv/emedicinal-product-info/StructureDefinition/MedicinalProductDefinition-uv-epi"/>
        </meta>
        <text>
          <status value="generated"/><div xmlns="http://www.w3.org/1999/xhtml"><a name="MedicinalProductDefinition_mpac2bb08bb4cc3f51f8c4e3513034c019"> </a><p class="res-header-id"><b>Generated Narrative: MedicinalProductDefinition mpac2bb08bb4cc3f51f8c4e3513034c019</b></p><a name="mpac2bb08bb4cc3f51f8c4e3513034c019"> </a><a name="hcmpac2bb08bb4cc3f51f8c4e3513034c019"> </a><a name="mpac2bb08bb4cc3f51f8c4e3513034c019-en-US"> </a><p><b>identifier</b>: <code>https://spor.ema.europa.eu/pmswi</code>/39.955, <code>https://www.who-umc.org/phpid_4</code>/FB9808F4FED210183F412F9998622287, <code>https://www.who-umc.org/phpid_3</code>/5C62673C79E096D37914D32A45AA8F4D</p><p><b>type</b>: <span title="Codes:{http://hl7.org/fhir/medicinal-product-type MedicinalProduct}">Medicinal Product</span></p><p><b>domain</b>: <span title="Codes:{http://hl7.org/fhir/medicinal-product-domain Human}">Human use</span></p><p><b>status</b>: <span title="Codes:{http://hl7.org/fhir/publication-status active}">active</span></p><p><b>legalStatusOfSupply</b>: <span title="Codes:{https://spor.ema.europa.eu/rmswi 100000072084}">Medicinal product subject to medical prescription</span></p><blockquote><p><b>name</b></p><p><b>productName</b>: Tegretol 200 mg tablets</p><p><b>type</b>: <span title="Codes:{https://spor.ema.europa.eu/lists/220000000000 220000000001}">Full name</span></p><blockquote><p><b>part</b></p><p><b>part</b>: Tegretol</p><p><b>type</b>: <span title="Codes:{https://spor.ema.europa.eu/lists/220000000000 220000000002}">Invented name part</span></p></blockquote><blockquote><p><b>part</b></p><p><b>part</b>: Carbamazepine</p><p><b>type</b>: <span title="Codes:{https://spor.ema.europa.eu/lists/220000000000 220000000003}">Scientific name part</span></p></blockquote><blockquote><p><b>part</b></p><p><b>part</b>: 200 mg</p><p><b>type</b>: <span title="Codes:{https://spor.ema.europa.eu/lists/220000000000 220000000004}">Strength part</span></p></blockquote><blockquote><p><b>part</b></p><p><b>part</b>: tablets</p><p><b>type</b>: <span title="Codes:{https://spor.ema.europa.eu/lists/220000000000 220000000005}">Pharmaceutical dose form part</span></p></blockquote><h3>Usages</h3><table class="grid"><tr><td style="display: none">-</td><td><b>Country</b></td><td><b>Jurisdiction</b></td><td><b>Language</b></td></tr><tr><td style="display: none">*</td><td><span title="Codes:{urn:iso:std:iso:3166 ES}">Spain</span></td><td><span title="Codes:{urn:iso:std:iso:3166 ES}">Spain</span></td><td><span title="Codes:{urn:ietf:bcp:47 en}">English</span></td></tr></table></blockquote></div>
        </text>
        <identifier>
          <system value="https://spor.ema.europa.eu/pmswi"/>
          <value value="39.955"/>
        </identifier>
        <identifier>
          <system value="https://www.who-umc.org/phpid_4"/>
          <value value="FB9808F4FED210183F412F9998622287"/>
        </identifier>
        <identifier>
          <system value="https://www.who-umc.org/phpid_3"/>
          <value value="5C62673C79E096D37914D32A45AA8F4D"/>
        </identifier>
        <type>
          <coding>
            <system value="http://hl7.org/fhir/medicinal-product-type"/>
            <code value="MedicinalProduct"/>
            <display value="Medicinal Product"/>
          </coding>
        </type>
        <domain>
          <coding>
            <system value="http://hl7.org/fhir/medicinal-product-domain"/>
            <code value="Human"/>
            <display value="Human use"/>
          </coding>
        </domain>
        <status>
          <coding>
            <system value="http://hl7.org/fhir/publication-status"/>
            <code value="active"/>
            <display value="active"/>
          </coding>
        </status>
        <legalStatusOfSupply>
          <coding>
            <system value="https://spor.ema.europa.eu/rmswi"/>
            <code value="100000072084"/>
            <display value="Medicinal product subject to medical prescription"/>
          </coding>
        </legalStatusOfSupply>
        <name>
          <productName value="Tegretol 200 mg tablets"/>
          <type>
            <coding>
              <system value="https://spor.ema.europa.eu/lists/220000000000"/>
              <code value="220000000001"/>
              <display value="Full name"/>
            </coding>
          </type>
          <part>
            <part value="Tegretol"/>
            <type>
              <coding>
                <system value="https://spor.ema.europa.eu/lists/220000000000"/>
                <code value="220000000002"/>
                <display value="Invented name part"/>
              </coding>
            </type>
          </part>
          <part>
            <part value="Carbamazepine"/>
            <type>
              <coding>
                <system value="https://spor.ema.europa.eu/lists/220000000000"/>
                <code value="220000000003"/>
                <display value="Scientific name part"/>
              </coding>
            </type>
          </part>
          <part>
            <part value="200 mg"/>
            <type>
              <coding>
                <system value="https://spor.ema.europa.eu/lists/220000000000"/>
                <code value="220000000004"/>
                <display value="Strength part"/>
              </coding>
            </type>
          </part>
          <part>
            <part value="tablets"/>
            <type>
              <coding>
                <system value="https://spor.ema.europa.eu/lists/220000000000"/>
                <code value="220000000005"/>
                <display value="Pharmaceutical dose form part"/>
              </coding>
            </type>
          </part>
          <usage>
            <country>
              <coding>
                <system value="urn:iso:std:iso:3166"/>
                <code value="ES"/>
                <display value="Spain"/>
              </coding>
            </country>
            <jurisdiction>
              <coding>
                <system value="urn:iso:std:iso:3166"/>
                <code value="ES"/>
                <display value="Spain"/>
              </coding>
            </jurisdiction>
            <language>
              <coding>
                <system value="urn:ietf:bcp:47"/>
                <code value="en"/>
                <display value="English"/>
              </coding>
            </language>
          </usage>
        </name>
      </MedicinalProductDefinition>
    </resource>
  </entry>
  <entry>
    <fullUrl value="http://hl7.eu/fhir/ig/gravitate-health/ManufacturedItemDefinition/mid-2f37d696067eeb6daf1111cfc3272672"/>
    <resource>
      <ManufacturedItemDefinition>
        <id value="mid-2f37d696067eeb6daf1111cfc3272672"/>
        <meta>
          <profile value="http://hl7.org/fhir/uv/emedicinal-product-info/StructureDefinition/ManufacturedItemDefinition-uv-epi"/>
        </meta>
        <text>
          <status value="generated"/><div xmlns="http://www.w3.org/1999/xhtml"><a name="ManufacturedItemDefinition_mid-2f37d696067eeb6daf1111cfc3272672"> </a><p class="res-header-id"><b>Generated Narrative: ManufacturedItemDefinition mid-2f37d696067eeb6daf1111cfc3272672</b></p><a name="mid-2f37d696067eeb6daf1111cfc3272672"> </a><a name="hcmid-2f37d696067eeb6daf1111cfc3272672"> </a><a name="mid-2f37d696067eeb6daf1111cfc3272672-en-US"> </a><p><b>identifier</b>: <code>https://spor.ema.europa.eu/pmswi</code>/39955 (use: official, )</p><p><b>status</b>: Active</p><p><b>manufacturedDoseForm</b>: <span title="Codes:{https://spor.ema.europa.eu/rmswi/ 100000073665}">Film-coated tablet</span></p><p><b>unitOfPresentation</b>: <span title="Codes:{https://spor.ema.europa.eu/rmswi 200000002152}">Tablet</span></p></div>
        </text>
        <identifier>
          <use value="official"/>
          <system value="https://spor.ema.europa.eu/pmswi"/>
          <value value="39955"/>
        </identifier>
        <status value="active"/>
        <manufacturedDoseForm>
          <coding>
            <system value="https://spor.ema.europa.eu/rmswi/"/>
            <code value="100000073665"/>
            <display value="Film-coated tablet"/>
          </coding>
        </manufacturedDoseForm>
        <unitOfPresentation>
          <coding>
            <system value="https://spor.ema.europa.eu/rmswi"/>
            <code value="200000002152"/>
            <display value="Tablet"/>
          </coding>
        </unitOfPresentation>
      </ManufacturedItemDefinition>
    </resource>
  </entry>
</Bundle>